timestamp,ax,ay,az,gx,gy,gz,grx,gry,grz
1773140814.459834,-0.025576,-0.054335,-0.012294,-0.063858,-0.346715,-0.331846,0.138674,-0.132723,-0.981404
1773140814.478875,-0.017704,-0.077969,-0.014343,0.036215,-0.379109,-0.333492,0.131901,-0.131870,-0.982452
1773140814.499238,-0.068727,-0.114687,-0.015626,-0.109321,-0.298780,-0.179355,0.126283,-0.131116,-0.983291
1773140814.519051,-0.020934,-0.113524,-0.006730,-0.180031,-0.340850,-0.241195,0.120619,-0.127351,-0.984496
1773140814.539164,0.010161,-0.081916,0.001292,-0.213460,-0.238760,-0.068026,0.114503,-0.123650,-0.985698
1773140814.559289,-0.047877,-0.115047,0.010006,-0.300680,-0.148301,-0.040300,0.111155,-0.118306,-0.986736
1773140814.579421,0.008473,-0.074987,-0.018604,-0.281425,-0.104364,-0.007234,0.108622,-0.112360,-0.987713
1773140814.599594,0.010650,-0.055380,-0.057274,-0.283137,-0.022041,0.027015,0.107301,-0.106821,-0.988471
1773140814.619613,0.034524,-0.054837,-0.074361,-0.323227,0.029893,0.058039,0.107367,-0.100757,-0.989101
1773140814.639706,0.053625,-0.016198,-0.079539,-0.278542,0.097091,0.083011,0.108438,-0.094688,-0.989583
1773140814.659885,0.072814,-0.004739,-0.072812,-0.203705,0.129458,0.103942,0.110628,-0.090155,-0.989764
1773140814.679957,0.100517,-0.023209,-0.054927,-0.226440,0.094705,0.073941,0.112755,-0.086242,-0.989873
1773140814.700107,0.072707,-0.026233,-0.058868,-0.216378,0.080753,0.052046,0.114304,-0.081860,-0.990067
1773140814.720186,0.043839,-0.012342,-0.053122,-0.143239,0.058523,0.023214,0.115631,-0.078341,-0.990198
1773140814.740468,0.048071,-0.007462,-0.026276,-0.058583,0.004980,0.012482,0.116236,-0.076385,-0.990280
1773140814.760426,0.034113,-0.048402,0.031407,-0.021371,-0.017246,0.037133,0.115988,-0.075713,-0.990361
1773140814.780426,0.028738,-0.053831,0.090316,-0.058408,-0.026669,0.092741,0.115458,-0.074785,-0.990493
1773140814.800650,0.052061,-0.027851,0.117704,-0.080914,-0.029768,0.180124,0.114641,-0.073834,-0.990659
1773140814.821054,0.070187,-0.027018,0.146274,-0.185901,-0.002142,0.297281,0.113956,-0.071935,-0.990878
1773140814.840959,0.121083,-0.035630,0.199987,-0.408730,0.009099,0.434190,0.113475,-0.067031,-0.991277
1773140814.861269,0.163314,-0.068087,0.276560,-0.804512,0.070117,0.631760,0.113541,-0.056546,-0.991923
1773140814.881154,0.208879,-0.154641,0.371850,-1.525203,0.127265,0.899319,0.114836,-0.035636,-0.992745
1773140814.901423,0.244585,-0.276217,0.469744,-2.583775,0.155724,1.176518,0.117323,0.002612,-0.993090
1773140814.921420,0.287135,-0.294925,0.529045,-3.622071,0.141583,1.452066,0.121328,0.061832,-0.990685
1773140814.941473,0.338866,-0.161053,0.553283,-4.230816,0.148296,1.723453,0.127259,0.136471,-0.982436
1773140814.961492,0.367279,0.026791,0.502522,-4.461530,0.238974,2.094839,0.137619,0.216739,-0.966481
1773140814.981606,0.352752,0.069872,0.444537,-4.714071,0.374369,2.448832,0.155381,0.297804,-0.941897
1773140815.001902,0.351667,0.013888,0.410401,-5.161465,0.339316,2.726917,0.180163,0.380796,-0.906937
1773140815.021895,0.376163,-0.018481,0.375560,-5.633816,0.228315,2.953171,0.209241,0.465655,-0.859874
1773140815.042158,0.390168,-0.051890,0.442644,-6.324011,0.158389,3.190702,0.244109,0.550975,-0.798021
1773140815.062376,0.370135,-0.164360,0.584742,-7.140530,-0.063596,3.229709,0.283430,0.636330,-0.717462
1773140815.082472,0.387355,-0.099982,0.652620,-8.332016,-0.353208,3.291889,0.325215,0.719871,-0.613206
1773140815.102630,0.417693,0.079419,0.660771,-9.367256,-0.663107,3.353923,0.370409,0.794330,-0.481496
1773140815.122369,0.435198,0.288089,0.601231,-10.168218,-0.990430,3.240150,0.418577,0.847592,-0.326161
1773140815.142304,0.419447,0.385335,0.415077,-10.340135,-1.349252,2.898708,0.466600,0.870341,-0.157448
1773140815.162472,0.404669,0.452665,0.414582,-9.865252,-1.850502,2.301869,0.509531,0.860445,0.003540
1773140815.182853,0.427538,0.505361,0.494263,-9.497498,-2.331983,1.862431,0.548475,0.823328,0.145966
1773140815.203150,0.402125,0.503362,0.481796,-7.819656,-2.835713,1.435788,0.584859,0.769496,0.256547
1773140815.223044,0.368017,0.674546,0.519060,-5.736178,-3.038228,1.192320,0.622202,0.713195,0.322829
1773140815.247729,0.135671,0.684949,0.422814,-3.126355,-2.600892,0.931987,0.656550,0.670046,0.346381
1773140815.262610,-0.080511,0.441727,0.392290,-1.360209,-1.755817,0.750145,0.682806,0.643570,0.345823
1773140815.282762,-0.125298,0.187680,0.608768,-0.993323,-1.121722,0.689363,0.701729,0.625644,0.340802
1773140815.302680,-0.123522,0.107394,0.679786,-0.805126,-0.772627,0.615115,0.716250,0.610380,0.338266
1773140815.322933,-0.175263,0.165623,0.601170,-0.521843,-0.418203,0.561377,0.727463,0.596935,0.338329
1773140815.343053,-0.201184,0.296064,0.427407,0.192277,-0.225423,0.469263,0.735623,0.588366,0.335685
1773140815.363363,-0.216979,0.215757,0.598998,0.299975,0.062165,0.410177,0.741393,0.583849,0.330842
1773140815.383417,-0.229199,0.271649,0.470987,0.594188,0.252468,0.226244,0.744351,0.581577,0.328192
1773140815.403570,-0.269053,0.255021,0.474226,0.228089,0.397367,-0.044954,0.743144,0.583327,0.327822
1773140815.423673,-0.282189,0.101199,0.401480,0.010905,0.625360,-0.143871,0.738670,0.584989,0.334894
1773140815.443951,-0.307245,0.163999,0.331938,0.211397,0.832513,-0.288878,0.731165,0.588747,0.344637
1773140815.464178,-0.297649,0.162783,0.326945,0.418610,0.994747,-0.386125,0.720608,0.595930,0.354391
1773140815.484389,-0.246274,0.132382,0.247304,0.451785,1.030944,-0.479334,0.708006,0.605624,0.363246
1773140815.504154,-0.210269,0.055470,0.216799,0.255366,1.023546,-0.539577,0.694003,0.615642,0.373289
1773140815.523844,-0.183451,-0.030194,0.163759,0.185745,1.006400,-0.581140,0.679392,0.624844,0.384704
1773140815.544115,-0.184903,-0.059426,0.093763,0.134246,1.032035,-0.608056,0.663800,0.634301,0.396273
1773140815.564283,-0.113785,-0.111566,-0.009657,-0.231193,0.945028,-0.658110,0.647614,0.642511,0.409605
1773140815.584747,-0.018553,-0.164325,-0.044306,-0.796865,0.707169,-0.690338,0.631788,0.646808,0.427180
1773140815.604619,0.024502,-0.242725,-0.085073,-0.933334,0.525633,-0.631600,0.617877,0.647098,0.446645
1773140815.624840,0.047397,-0.245907,-0.010401,-1.058085,0.375474,-0.573440,0.605969,0.645412,0.465022
1773140815.644865,0.097784,-0.144943,0.018808,-1.343814,0.151555,-0.529121,0.596384,0.640609,0.483680
1773140815.665129,0.153815,-0.147293,-0.017633,-1.796065,-0.029144,-0.384819,0.589776,0.630631,0.504449
1773140815.685249,0.196912,-0.120993,-0.087629,-1.980744,-0.169006,-0.208897,0.587176,0.614218,0.527219
1773140815.705347,0.219445,0.024279,-0.121270,-1.765714,-0.303514,-0.025262,0.588309,0.595029,0.547570
1773140815.725638,0.213025,0.058745,-0.100076,-1.464537,-0.406472,0.180719,0.593173,0.576600,0.561853
1773140815.745643,0.207893,0.095262,-0.107923,-1.333303,-0.554808,0.480782,0.602349,0.556624,0.572142
1773140815.765799,0.175309,0.131163,-0.163665,-1.173076,-0.630155,0.810668,0.616347,0.533876,0.578872
1773140815.786222,0.127365,0.194225,-0.150192,-0.951667,-0.564018,1.006356,0.633133,0.510120,0.582168
1773140815.805913,0.071373,0.303002,-0.103855,-0.618880,-0.473648,1.085480,0.649773,0.487250,0.583424
1773140815.825989,-0.011597,0.262411,-0.081991,-0.558680,-0.319707,1.087272,0.664917,0.466120,0.583624
1773140815.850762,-0.073245,0.255157,-0.085371,-0.542708,-0.213285,1.045586,0.677768,0.445160,0.585204
1773140815.866334,-0.124971,0.386388,-0.117784,-0.675341,-0.150473,0.905836,0.688493,0.424541,0.587999
1773140815.888678,-0.166011,0.283358,-0.263558,-0.731667,-0.078818,0.776228,0.696712,0.404341,0.592538
1773140815.912630,-0.102299,0.087196,-0.329747,-0.492560,-0.065008,0.766429,0.703663,0.385780,0.596684
1773140815.926461,-0.078029,0.134497,-0.262952,-0.059950,-0.050581,0.636673,0.709834,0.372141,0.598035
1773140815.946375,-0.124353,0.294791,-0.144825,0.291945,0.054249,0.507568,0.713892,0.365686,0.597187
1773140815.966467,-0.037478,0.177331,-0.128963,0.343344,0.009309,0.454638,0.716876,0.362937,0.595287
1773140815.986765,0.027780,0.061250,-0.131944,0.177983,-0.108539,0.470062,0.720832,0.359420,0.592638
1773140816.006867,0.006714,-0.021245,-0.130945,-0.007315,-0.152171,0.463946,0.725769,0.353642,0.590082
1773140816.027139,-0.020580,0.023589,-0.129989,-0.063989,-0.177469,0.470761,0.731029,0.346254,0.587966
1773140816.046811,-0.029831,-0.022118,-0.204556,0.092535,-0.226454,0.522970,0.736801,0.338936,0.585019
1773140816.067246,-0.033749,-0.020367,-0.219194,0.202308,-0.278465,0.551137,0.743359,0.332760,0.580248
1773140816.087422,-0.034589,-0.008080,-0.139173,0.164886,-0.302520,0.633958,0.750699,0.326180,0.574506
1773140816.107669,-0.021547,0.048032,-0.008701,0.001493,-0.242841,0.724656,0.758333,0.316669,0.569782
1773140816.127547,-0.016492,0.158404,0.012620,0.140387,-0.179708,0.741926,0.765363,0.305905,0.566253
1773140817.085824,-0.030483,0.262886,0.035186,0.080438,-0.377449,0.567158,0.771877,0.297524,0.561860
1773140817.091449,-0.264132,0.252697,0.133796,-0.406051,-0.241720,0.175643,0.778796,0.289463,0.556497
1773140817.091578,-0.189846,0.429860,0.135059,-0.295956,-0.226993,-0.188796,0.781094,0.285167,0.555493
1773140817.091658,-0.022735,0.493445,0.202694,-0.327668,-0.147483,-0.546867,0.781311,0.287958,0.553746
1773140817.091729,-0.049510,0.502735,0.323832,-0.710122,0.111954,-0.921731,0.777186,0.293560,0.556601
1773140817.091801,-0.037424,0.612972,0.330672,-0.885437,0.354636,-1.296124,0.767984,0.301701,0.564958
1773140817.091873,0.010071,0.655696,0.354953,-0.926116,0.597304,-1.599361,0.753540,0.313451,0.577863
1773140817.091943,0.066383,0.765345,0.406141,-0.893132,0.925939,-1.949013,0.733285,0.329092,0.594973
1773140817.092012,0.090367,0.797925,0.439281,-0.922859,1.318840,-2.306908,0.705043,0.348865,0.617421
1773140817.092081,0.175674,0.790998,0.441235,-0.965652,1.724306,-2.679645,0.667816,0.371386,0.645054
1773140817.092151,0.237615,0.752876,0.479510,-1.212456,2.172081,-3.072474,0.619654,0.394372,0.678602
1773140817.094713,0.350665,0.682312,0.489123,-1.344617,2.640666,-3.366228,0.559705,0.414459,0.717603
1773140817.094798,0.420860,0.667980,0.489728,-1.347417,3.127271,-3.634985,0.487084,0.431477,0.759327
1773140817.094869,0.523755,0.584624,0.463498,-1.394302,3.542989,-3.806268,0.401629,0.443239,0.801395
1773140817.094940,0.618084,0.487202,0.366159,-1.168986,3.833328,-3.878086,0.305806,0.449138,0.839499
1773140817.095010,0.680270,0.321107,0.231281,-0.761364,4.027791,-3.856941,0.202954,0.451949,0.868649
1773140817.095195,0.680708,0.215554,-0.036544,-0.116272,3.925155,-3.795871,0.097384,0.456046,0.884612
1773140817.095267,0.702803,0.071531,-0.249204,0.259338,3.597601,-3.622551,-0.003874,0.461214,0.887280
1773140817.095338,0.651219,-0.244340,-0.165203,-0.110501,3.441447,-3.280954,-0.098622,0.459703,0.882580
1773140817.095409,0.736799,-0.365897,-0.219646,-0.047938,3.138394,-2.754790,-0.184522,0.448569,0.874493
1773140817.095481,0.755487,-0.596140,-0.286331,0.695218,2.835242,-1.889797,-0.257699,0.444178,0.858078
1773140817.095553,0.847546,-0.893434,-0.365987,1.358151,2.597683,-0.742304,-0.315762,0.453539,0.833425
1773140817.095623,0.894057,-1.215498,-0.308158,2.622744,2.630242,0.511212,-0.359466,0.484251,0.797675
1773140817.095693,0.893626,-1.170112,-0.220330,4.290714,2.826418,1.706814,-0.389857,0.546012,0.741540
1773140817.095763,0.840428,-1.236090,-0.071932,5.311311,3.152801,2.638217,-0.405857,0.632849,0.659380
1773140817.095833,0.753886,-1.212728,0.116335,5.003784,3.542336,3.239991,-0.406581,0.720815,0.561354
1773140817.095905,0.682798,-0.998405,0.190755,4.518642,3.904481,3.686150,-0.391614,0.797507,0.458934
1773140817.095977,0.642405,-0.597460,-0.039793,4.791633,4.107827,3.903225,-0.360498,0.863940,0.351637
1773140817.096048,0.473834,-0.337505,-0.283978,5.274610,3.802871,3.536462,-0.316059,0.920207,0.230923
1773140817.096117,0.319143,-0.196713,-0.553862,3.665645,3.264992,3.393663,-0.265829,0.954938,0.132018
1773140817.096188,0.326903,-0.886061,-0.811628,2.262688,2.728908,3.177366,-0.206999,0.976683,0.056944
1773140817.096258,0.362841,-0.566912,-0.818876,4.232922,1.997834,3.164663,-0.144976,0.989397,-0.008654
1773140817.096328,0.485338,0.348581,-0.901591,5.559455,1.388780,3.469205,-0.078569,0.990302,-0.114583
1773140817.096398,0.714374,-0.053276,-1.043423,4.738269,2.285004,3.476509,0.002759,0.972237,-0.233982
1773140817.096467,0.584969,-0.528803,-1.411085,-4.522770,1.501201,2.409627,0.060127,0.970148,-0.234942
1773140817.096536,1.218503,-0.970361,-0.775600,-2.148398,-0.473138,4.093311,0.136202,0.975641,-0.171971
1773140817.096607,0.160879,-0.391285,0.654165,-1.997425,2.260128,5.235410,0.218286,0.967914,-0.124471
1773140817.096676,0.630665,0.932045,-0.493271,0.741198,1.757959,3.942054,0.319698,0.941582,-0.105911
1773140817.096749,1.633791,0.111708,-0.358580,1.180303,0.642073,4.261008,0.398237,0.909578,-0.118638
1773140817.096819,1.686394,0.005162,-0.249035,0.462755,-0.515067,3.188703,0.467598,0.874523,-0.128696
1773140817.096888,2.220727,0.804081,-0.507135,-0.296609,-1.938937,1.994016,0.509513,0.848644,-0.142127
1773140817.096958,2.618197,0.738315,-0.568970,-1.013914,-4.526104,0.588806,0.521451,0.837521,-0.163238
1773140817.097028,2.597944,0.976742,-0.534243,-0.551682,-6.161889,0.265354,0.507617,0.836933,-0.204618
1773140817.097097,2.099543,1.162135,-0.378776,0.055545,-7.248347,0.198429,0.480612,0.835423,-0.266610
1773140817.097165,1.430157,1.123365,0.163781,0.905233,-8.553564,0.508735,0.437854,0.828295,-0.349587
1773140817.097234,0.629379,1.771284,0.872443,-6.229202,-13.150517,-3.241032,0.368546,0.833727,-0.411185
1773140817.097302,-0.253406,-0.643312,3.625373,-1.821772,-8.546515,-0.725483,0.307163,0.802004,-0.512290
1773140817.097372,-1.955140,-1.473588,2.296382,-1.131915,-6.296617,0.038383,0.209260,0.827561,-0.520915
1773140817.113583,-1.498041,0.077622,2.646510,2.038065,-3.302616,0.273919,0.166604,0.818390,-0.549983
1773140817.132583,-0.580999,0.395518,2.052790,4.276994,-1.582661,-0.417555,0.123663,0.779180,-0.614481
1773140817.153181,0.508059,-1.140397,2.987745,-1.042249,-1.195420,0.562356,0.116651,0.758454,-0.641202
1773140817.172843,0.328560,-0.732580,2.319162,-3.290889,-1.734497,0.228242,0.101708,0.789266,-0.605569
1773140817.192867,-0.292148,-0.105357,1.899843,-2.555128,-0.512516,0.278394,0.091205,0.823115,-0.560503
1773140817.213066,-0.680176,-0.422809,1.487414,-2.628262,0.970436,0.573231,0.101563,0.849781,-0.517260
1773140817.233349,-0.463158,-0.232870,1.086430,-2.830320,1.502557,0.579816,0.124337,0.875936,-0.466129
1773140817.253317,-0.201318,-0.016782,0.718390,-2.869851,1.481588,0.462772,0.147287,0.899442,-0.411475
1773140817.273357,-0.044393,0.077869,0.499577,-2.856481,1.180998,0.339730,0.164892,0.920422,-0.354450
1773140817.293552,0.011589,0.119638,0.355843,-2.828221,0.908803,0.329447,0.177696,0.937858,-0.298073
1773140817.313686,0.052916,0.195014,0.196338,-2.832049,0.630304,0.365514,0.188631,0.951913,-0.241412
1773140817.334030,0.068448,0.196552,0.039504,-2.624915,0.382548,0.470530,0.198657,0.962124,-0.186690
1773140817.353773,0.057941,0.169298,0.035512,-2.489864,0.295311,0.651306,0.210476,0.968077,-0.136113
1773140817.374057,0.104287,0.108535,0.081010,-2.355065,0.228743,0.973053,0.226828,0.969911,-0.088441
1773140817.394076,0.185964,0.083778,0.043274,-2.359953,0.052943,1.170962,0.248179,0.967843,-0.041076
1773140817.414185,0.319798,0.237662,-0.019988,-2.318935,-0.210864,1.220280,0.271846,0.962335,0.003478
1773140817.434381,0.400523,0.409785,-0.125436,-2.397242,-0.471419,1.103086,0.294485,0.954503,0.046930
1773140817.454373,0.404765,0.353599,-0.203564,-2.572329,-0.815804,1.019975,0.315557,0.944634,0.089947
1773140817.476129,0.317504,0.241922,-0.281223,-2.931784,-1.151619,0.864910,0.335680,0.932135,0.135807
1773140817.497180,0.250922,0.336906,-0.309055,-2.792697,-1.416934,0.648160,0.354059,0.917534,0.181034
1773140817.515733,0.239797,0.436442,-0.318219,-2.680501,-1.703935,0.384711,0.369670,0.902914,0.219296
1773140817.534727,0.268904,0.328356,-0.272751,-2.636805,-2.100752,0.175788,0.383730,0.888227,0.252595
1773140817.554764,0.245171,0.288239,-0.224427,-2.158750,-2.474336,0.010164,0.397697,0.874343,0.278138
1773140817.574973,0.147223,0.287808,-0.095296,-1.433051,-2.411356,-0.107632,0.411173,0.864551,0.288946
1773140817.595073,0.093294,0.212923,0.018428,-0.755022,-2.140876,-0.216829,0.421461,0.859541,0.289068
1773140817.615150,0.194101,0.063987,0.102555,-0.276120,-2.041360,-0.239006,0.429525,0.858620,0.279784
1773140817.635151,0.325597,-0.063431,0.233234,-0.331866,-2.012382,-0.300065,0.436153,0.859512,0.266476
1773140817.661452,0.422422,-0.140543,0.371002,-0.722441,-2.065855,-0.401209,0.440798,0.859766,0.257873
1773140817.675356,0.467186,-0.192275,0.373567,-0.698954,-2.033631,-0.432985,0.444008,0.859710,0.252501
1773140817.695536,0.440744,-0.207144,0.370648,-0.345920,-1.994209,-0.306148,0.447424,0.860434,0.243855
1773140817.715628,0.363366,-0.279966,0.359774,-0.134389,-1.938711,-0.040175,0.453696,0.861097,0.229505
1773140817.735861,0.261260,-0.306088,0.419273,-0.303825,-1.881880,0.302958,0.464356,0.858929,0.215905
1773140817.755832,0.170260,-0.340758,0.390998,-0.527632,-1.767926,0.658497,0.480589,0.852598,0.205208
1773140817.775953,0.082625,-0.237221,0.306585,-0.662367,-1.670521,0.961968,0.501405,0.842049,0.198862
1773140817.796161,0.009989,-0.188860,0.270401,-0.682602,-1.567738,1.216829,0.526235,0.828020,0.193543
1773140817.816069,-0.076510,-0.211714,0.142965,-0.547380,-1.404682,1.486161,0.554278,0.810896,0.187678
1773140817.836167,-0.108597,-0.119934,0.055611,-0.119601,-1.167113,1.811712,0.585587,0.790649,0.178779
1773140817.856171,-0.041894,-0.041247,0.001858,0.303112,-0.965636,2.142929,0.620492,0.766849,0.164112
1773140817.876501,0.062008,0.035954,-0.001527,0.270506,-0.912821,2.376614,0.657856,0.738460,0.147997
1773140817.896467,0.130675,0.039000,0.010456,0.087295,-0.882856,2.495377,0.696107,0.705553,0.132778
1773140817.916644,0.120755,0.160568,-0.044542,-0.124476,-0.816421,2.437136,0.732563,0.669831,0.121157
1773140817.936725,0.099258,0.292534,-0.160132,-0.091791,-0.772295,2.260649,0.765336,0.634025,0.110785
1773140817.956881,0.084012,0.336948,-0.224662,-0.072653,-0.751727,2.034586,0.793689,0.600094,0.099724
1773140817.976839,0.052820,0.328252,-0.221548,0.070479,-0.618503,1.812009,0.817602,0.568919,0.088644
1773140817.999414,0.010944,0.342326,-0.222204,0.487528,-0.380204,1.605785,0.837536,0.540867,0.077428
1773140818.017220,-0.060925,0.354915,-0.179148,0.862267,-0.108126,1.267314,0.853207,0.517339,0.066325
1773140818.037220,-0.115494,0.372637,-0.231143,1.329090,0.250511,1.061602,0.865052,0.498426,0.057071
1773140818.057139,-0.154069,0.362826,-0.217431,2.094455,0.580439,0.887868,0.874177,0.483305,0.047234
1773140818.077315,-0.182180,0.273137,-0.101012,2.475611,0.886512,0.725663,0.881338,0.470973,0.037795
1773140818.097456,-0.184406,0.167834,0.026421,2.424218,1.095156,0.630221,0.886921,0.460798,0.032189
1773140818.117590,-0.157018,0.099053,0.060321,1.990362,1.102143,0.541305,0.891591,0.451713,0.031949
1773140818.137765,-0.141714,0.153277,0.068339,1.654611,1.043902,0.471117,0.895467,0.443769,0.034749
1773140818.157840,-0.187104,0.200242,0.062652,1.313262,0.955054,0.333480,0.898347,0.437499,0.039597
1773140818.177969,-0.247489,0.160736,0.091144,0.943500,0.891436,0.179776,0.899741,0.433976,0.046170
1773140818.198454,-0.292694,0.126964,0.089744,0.657171,0.877652,0.053747,0.899917,0.432545,0.055261
1773140818.218747,-0.330329,0.168615,0.089005,0.620197,0.989355,-0.027886,0.898872,0.433130,0.066543
1773140818.238257,-0.322816,0.201122,0.081375,0.659784,1.049161,-0.083854,0.896883,0.435063,0.079513
1773140818.258461,-0.274086,0.210252,0.085049,0.691011,1.084863,-0.146719,0.894050,0.438231,0.092884
1773140818.278665,-0.196636,0.213730,0.091612,0.727209,1.024107,-0.244217,0.890194,0.443176,0.105593
1773140818.298659,-0.104836,0.204220,0.121982,0.650368,0.935470,-0.370850,0.885262,0.450183,0.116818
1773140818.318752,-0.006570,0.171467,0.186813,0.473955,0.893513,-0.442542,0.879266,0.458843,0.127885
1773140818.339145,0.127873,0.120627,0.235346,0.233806,0.829142,-0.481014,0.872615,0.467981,0.139776
1773140818.358996,0.266039,0.024750,0.316680,-0.061292,0.824747,-0.509065,0.865568,0.476837,0.153031
1773140818.379044,0.301869,-0.047904,0.371308,-0.533706,0.944772,-0.622909,0.857295,0.485632,0.170898
1773140818.399076,0.242917,-0.144096,0.280893,-0.774639,1.251930,-0.583174,0.847095,0.493842,0.196341
1773140818.419452,0.206225,-0.206970,0.202212,-0.980056,1.449881,-0.506378,0.835889,0.499161,0.228315
1773140818.439591,0.178821,-0.239947,0.271828,-1.154827,1.719285,-0.365673,0.823667,0.501101,0.265465
1773140818.459536,0.150505,-0.173020,0.377823,-1.072764,2.032225,-0.352508,0.809303,0.500306,0.307770
1773140818.479664,0.192504,-0.187080,0.304171,-1.149709,2.141221,-0.340998,0.791749,0.499076,0.352216
1773140818.499571,0.164915,-0.284049,0.200481,-1.637184,2.057194,-0.080426,0.773409,0.492392,0.399236
1773140818.519592,0.027462,-0.434330,0.088793,-2.284820,1.700213,0.405027,0.758854,0.473301,0.447355
1773140818.539884,-0.266567,-0.424471,-0.012464,-2.661526,1.777165,0.985010,0.748851,0.439104,0.496397
1773140818.560205,-0.451091,-0.359596,0.035995,-2.430078,1.913308,1.402025,0.740092,0.393287,0.545517
1773140818.580228,-0.451638,-0.119910,0.349868,-2.345780,2.457392,1.162736,0.724908,0.346869,0.595140
1773140818.600366,0.099982,0.181585,0.470835,-3.097913,3.072546,0.734507,0.697580,0.299189,0.651052
1773140818.621528,0.710373,0.237533,0.928634,-2.064182,4.409183,0.482618,0.648758,0.252854,0.717759
1773140818.640675,1.112038,0.521362,1.182368,-0.287793,5.469171,0.637348,0.575859,0.229508,0.784673
1773140818.660778,1.033989,0.287827,0.512726,1.493114,5.542840,0.898028,0.487663,0.231048,0.841904
1773140818.680838,0.815099,-0.226649,-0.112281,1.507640,5.170362,1.154522,0.399943,0.252848,0.880973
1773140818.701044,1.156757,-0.849901,-0.283220,0.036451,4.774122,1.173136,0.315929,0.255571,0.913713
1773140818.721206,1.118582,0.164975,-0.575436,0.967882,4.201391,1.187390,0.237604,0.256381,0.936917
1773140818.741147,0.765071,0.180242,-0.595996,2.229187,3.343840,1.193607,0.171467,0.279002,0.944858
1773140818.761004,0.187146,1.248775,-2.382931,4.973563,2.915618,1.150283,0.124408,0.359654,0.924755
1773140818.781209,-0.272682,-0.740372,-0.625937,3.140994,2.571458,0.842519,0.076317,0.430817,0.899207
1773140818.801319,0.163130,0.841405,-0.762897,4.611094,2.075656,0.959400,0.045519,0.493266,0.868687
1773140818.821538,0.019630,0.271164,-0.408862,6.470946,1.934037,1.083775,0.022270,0.587249,0.809100
1773140818.841573,0.037692,-0.953610,0.119975,6.529913,1.939006,1.326313,0.006955,0.689649,0.724111
1773140818.861591,0.222639,-1.371300,0.455326,3.547940,0.967337,1.567028,0.007952,0.762825,0.646557
1773140818.881849,0.317375,-1.398116,-0.518358,0.690993,-0.408614,0.829404,0.025764,0.785277,0.618609
1773140818.905476,0.358652,0.147094,-1.008845,0.194217,-1.094159,0.817389,0.048208,0.783357,0.619700
1773140818.922306,0.396010,0.262469,-0.262735,-0.502288,-1.629695,0.512497,0.075044,0.778288,0.623407
1773140818.942036,0.173001,-0.069274,0.192053,-1.211974,-1.369442,0.456351,0.101352,0.768050,0.632318
1773140818.962010,0.270856,-0.152506,0.358328,-2.839594,-1.516549,0.429891,0.127032,0.740259,0.660212
1773140818.982069,0.172765,-0.157474,0.336241,-3.581429,-1.755405,0.397530,0.154384,0.693577,0.703646
1773140819.002493,0.143385,-0.052358,-0.281399,-3.705597,-2.289065,0.215155,0.188310,0.638662,0.746091
1773140819.022778,0.078687,0.114329,-0.275014,-3.744146,-2.603088,0.222631,0.228625,0.582006,0.780385
1773140819.042723,0.032899,0.201679,-0.068871,-4.057974,-2.947316,0.216294,0.275863,0.518582,0.809304
1773140819.062777,-0.094824,0.331876,0.107892,-4.247124,-2.843359,0.165769,0.325736,0.447116,0.833057
1773140819.082763,-0.225974,0.413847,-0.139402,-2.826436,-2.629029,0.231736,0.373892,0.384889,0.843839
1773140819.103125,-0.352799,0.157203,-0.396962,-1.293877,-2.242894,0.323747,0.417435,0.350152,0.838536
1773140819.123364,-0.309352,0.184879,-0.096829,-0.504986,-1.970709,0.475737,0.454616,0.331036,0.826886
1773140819.143331,-0.178264,0.258252,-0.203297,0.441435,-2.167476,0.539268,0.492137,0.326434,0.806995
1773140819.163239,-0.092480,0.142604,-0.163521,0.593381,-2.215790,0.708571,0.531140,0.328893,0.780846
1773140819.183283,0.106854,-0.039562,-0.233714,0.028037,-2.604043,0.568705,0.572665,0.327556,0.751506
1773140819.203628,0.149569,0.202123,0.051205,-0.741725,-2.687298,0.369676,0.615018,0.316019,0.722416
1773140819.223695,0.093144,0.174611,0.391134,-0.834536,-2.266476,0.137552,0.652690,0.300410,0.695521
1773140819.243735,0.010665,0.364528,0.607167,-0.296552,-1.657541,-0.277061,0.679460,0.293644,0.672389
1773140819.263741,-0.054713,0.558920,0.478855,-0.547011,-1.209907,-0.701113,0.695201,0.295969,0.655057
1773140819.283746,-0.008932,0.435598,0.286396,-1.073810,-0.921177,-1.012546,0.704015,0.297282,0.644970
1773140819.303823,-0.124282,0.470709,0.361427,-1.167784,-0.475851,-1.203943,0.706374,0.297968,0.642067
1773140819.324116,-0.240014,0.592501,0.354691,-1.245519,-0.004676,-1.381428,0.701669,0.300779,0.645905
1773140819.344235,-0.231850,0.595165,0.283241,-1.111133,0.412624,-1.505559,0.690087,0.305363,0.656151
1773140819.364232,-0.220252,0.675386,0.238956,-0.924709,0.744963,-1.716373,0.672324,0.313871,0.670422
1773140819.384337,-0.179695,0.725344,0.265057,-0.807736,1.047433,-1.980585,0.648246,0.326612,0.687824
1773140819.404438,-0.100969,0.766531,0.376201,-1.088656,1.360930,-2.425494,0.616700,0.341822,0.709111
1773140819.424697,0.000635,0.717176,0.527345,-1.519084,1.822267,-2.869169,0.575247,0.354510,0.737166
1773140819.444783,0.138133,0.810189,0.691477,-1.665084,2.406243,-3.238494,0.521001,0.363472,0.772299
1773140819.464883,0.305525,0.813258,0.691614,-1.710486,2.917153,-3.559669,0.453417,0.370030,0.810858
1773140819.485021,0.421292,0.833358,0.664448,-1.708367,3.510970,-3.749546,0.372287,0.371506,0.850521
1773140819.543612,0.709826,0.621175,0.520252,-1.421526,4.400327,-3.855271,0.172483,0.356608,0.918194
1773140819.543612,0.602608,0.761196,0.629780,-1.627164,4.061576,-3.829422,0.277519,0.367222,0.887768
1773140819.545150,0.758974,0.584254,0.238883,-1.036225,4.505329,-3.897492,0.061476,0.342321,0.937570
1773140819.565166,0.800580,0.511449,-0.027439,-0.622554,4.372460,-3.857201,-0.048718,0.327814,0.943485
1773140819.592228,0.808169,0.230094,-0.222029,-0.575567,4.053889,-3.645149,-0.153262,0.309060,0.938613
1773140819.605300,0.836900,-0.030812,-0.519689,-0.428840,3.466631,-3.283507,-0.244890,0.284901,0.926748
1773140839.756635,0.504924,-1.321172,0.252703,0.656464,0.499116,-2.954084,-0.063427,0.997778,0.020414
1773140839.756858,0.849594,-1.786642,0.296495,1.595764,0.495587,-2.183272,-0.114761,0.993384,-0.004411
1773140839.756937,1.186302,-2.326632,0.317621,1.605637,-0.103289,-1.499478,-0.151039,0.987795,-0.038064
1773140839.757012,1.359710,-2.688008,0.280064,0.305140,-0.854740,-0.999424,-0.176788,0.982579,-0.057316
1773140839.757092,1.322537,-2.659465,0.183403,-1.005072,-1.723903,0.014719,-0.188809,0.980983,-0.044991
1773140839.757165,1.090140,-2.341361,0.190106,-1.794613,-2.099602,1.294047,-0.177191,0.984137,-0.008786
1773140839.757239,1.009868,-1.905381,0.072968,-1.933710,-2.709842,2.546392,-0.138301,0.989731,0.036117
1773140839.748931,0.261959,-0.982229,0.262637,-0.003231,0.227783,-3.730346,0.004001,0.999654,0.025983
1773140839.766268,1.097993,-1.365747,0.139265,-2.090096,-3.337295,3.790614,-0.071412,0.994043,0.082338
1773140839.783553,1.277165,-0.896856,0.251348,-1.805855,-4.052331,5.274957,0.026347,0.991842,0.124721
1773140839.803589,1.398840,-0.250495,0.526715,-1.540761,-4.024156,6.318260,0.154550,0.977012,0.146838
1773140839.823765,2.161711,1.786562,0.864846,-0.149031,-4.078496,6.927396,0.294695,0.943129,0.153831
1773140839.844128,3.367235,4.796556,0.354252,1.559765,-4.476530,4.755187,0.423582,0.899977,0.103054
1773140839.864098,2.030391,3.059645,0.347338,-0.407908,-3.218868,1.894186,0.487142,0.871415,0.057691
1773140839.884107,1.518649,3.151058,0.976429,-1.672845,-3.728062,0.791134,0.511395,0.858235,0.043682
1773140839.904079,0.422833,1.990218,0.872511,-1.427664,-4.087406,0.535049,0.525333,0.850389,0.029406
1773140839.924361,-0.364962,1.194337,0.669461,-0.438322,-3.860467,0.528810,0.536120,0.844130,0.004474
1773140839.944471,-0.923747,0.385193,0.665326,0.229705,-3.398124,0.397331,0.542460,0.839356,-0.034909
1773140839.964802,-1.167875,-0.308896,0.858451,-0.261596,-2.686197,0.706856,0.548032,0.833600,-0.069083
1773140839.984661,-1.300314,-0.840034,1.002327,-1.539683,-2.423877,1.140561,0.559607,0.824622,-0.082695
1773140840.004995,-1.495483,-0.919418,0.963306,-2.717088,-2.183943,1.483669,0.577743,0.812912,-0.073398
1773140840.025080,-1.715924,-0.727440,0.748508,-2.796099,-1.604292,1.455895,0.599713,0.798668,-0.049731
1773140840.045301,-1.886448,-0.614184,0.453561,-1.852455,-0.522292,1.112193,0.619739,0.784381,-0.025872
1773140840.065293,-1.893068,-0.572413,0.102494,-0.693670,0.284519,0.438560,0.631837,0.775081,-0.005662
1773140840.085643,-1.732274,-0.670849,-0.070747,-0.172589,0.527788,-0.221888,0.633107,0.774045,0.005531
1773140840.105385,-1.620391,-0.725639,0.020867,-0.405488,0.766100,-0.472275,0.627013,0.778801,0.017982
1773140840.125447,-1.523399,-0.612796,0.071421,-0.365061,0.904967,-0.522800,0.618491,0.785007,0.035101
1773140840.145697,-1.370392,-0.493822,0.210777,0.028472,1.113598,-0.382549,0.610184,0.790667,0.050225
1773140840.165621,-1.153825,-0.106050,0.539932,-0.258086,1.534192,0.151201,0.606431,0.792437,0.065460
1773140840.186228,-0.800075,0.705132,1.008648,-0.754047,2.093704,0.412012,0.608394,0.787605,0.097645
1773140840.206011,-0.215994,1.956912,1.147142,-0.730294,3.057965,-0.283188,0.605566,0.783231,0.140853
1773140840.225925,0.987397,3.780106,0.746517,1.939372,3.795421,-2.239449,0.574309,0.799744,0.174870
1773140840.246255,1.987802,3.819555,1.354333,3.689925,4.072091,-3.744486,0.510276,0.842966,0.170372
1773140840.266163,1.924551,2.984480,1.157862,2.710879,3.057822,-4.697853,0.424860,0.893175,0.147420
1773140840.286468,1.538269,2.433206,0.788413,2.343933,3.880798,-5.351278,0.321731,0.938361,0.126367
1773140840.306509,1.727683,1.493229,0.699622,1.912941,3.860145,-5.504853,0.207406,0.972469,0.106241
1773140840.326510,1.649170,0.382464,0.582305,1.462590,3.317899,-5.302285,0.093155,0.992124,0.083741
1773140840.346525,1.421373,-0.391316,0.387417,1.012175,3.053974,-4.769442,-0.012895,0.998005,0.061802
1773140840.366752,1.299811,-0.876267,0.241731,1.113147,2.761057,-3.994674,-0.103919,0.993867,0.037810
1773140840.387090,1.254287,-1.319989,0.180632,1.567387,2.445374,-2.998424,-0.174850,0.984586,0.004274
1773140840.406973,1.206468,-1.943325,0.298798,1.527261,1.737570,-2.125514,-0.224610,0.973781,-0.036057
1773140840.427065,1.173049,-2.530100,0.319473,0.666567,0.961301,-1.042111,-0.254516,0.964884,-0.064971
1773140840.447136,1.042637,-2.872786,0.204568,-0.374891,0.198837,-0.056459,-0.264057,0.961867,-0.071313
1773140840.467409,0.882183,-2.663125,0.158904,-1.342184,-0.105181,1.047556,-0.255245,0.965416,-0.053115
1773140840.487762,0.887785,-2.201232,0.045154,-1.129341,-0.665108,2.033279,-0.224669,0.974075,-0.026508
1773140840.507606,0.872203,-1.738914,-0.001046,-0.880885,-1.465531,2.640326,-0.178905,0.983863,-0.002571
1773140840.527682,0.764005,-1.406674,-0.177789,-0.901401,-2.211071,3.288065,-0.119825,0.992596,0.019876
1773140840.547779,0.669007,-1.221772,-0.067220,-1.215221,-2.507691,4.165538,-0.044007,0.998017,0.045004
1773140840.567875,0.831738,-0.757369,0.235714,-1.711690,-2.681011,4.873858,0.050251,0.996001,0.073872
1773140840.588160,1.309781,0.462330,0.609556,-1.216800,-3.448656,5.427396,0.157382,0.982693,0.097704
1773140840.608108,2.628703,3.484299,0.182154,-0.707599,-2.620401,5.568628,0.275883,0.956115,0.098654
1773140840.628232,2.896321,3.232712,-0.243558,-1.712285,-4.174103,1.926783,0.354426,0.929947,0.097882
1773140840.650665,1.766473,3.075895,0.244329,-2.703484,-4.358398,0.091217,0.378989,0.918932,0.109232
1773140840.669109,0.841552,2.364326,0.515406,-1.994275,-4.013460,-0.159798,0.387299,0.913720,0.122946
1773140840.688453,0.056601,1.419935,0.399632,-1.048985,-3.862687,-0.100825,0.394647,0.911104,0.118923
1773140840.708477,-0.531152,0.508797,0.263108,-0.309984,-3.562664,-0.388389,0.398538,0.911537,0.101333
1773140840.728580,-0.754666,-0.246142,0.353761,-0.406201,-3.411128,-0.342701,0.397274,0.914340,0.078459
1773140840.748602,-0.842340,-0.769150,0.545264,-1.102173,-3.403013,0.198343,0.400521,0.913972,0.065103
1773140840.768906,-1.002425,-1.030070,0.633763,-1.622430,-3.229568,0.703968,0.413284,0.908427,0.062908
1773140840.789478,-1.161553,-0.897573,0.606195,-1.549525,-2.643449,1.013963,0.433006,0.898778,0.068579
1773140840.809089,-1.268880,-0.855782,0.327690,-0.554057,-1.815760,1.149857,0.455891,0.887460,0.067665
1773140840.829162,-1.300236,-0.986439,0.092791,-0.096002,-0.850951,1.018707,0.477207,0.876697,0.060621
1773140840.849222,-1.171976,-1.047538,-0.017977,-0.236729,-0.521588,0.637132,0.492640,0.868369,0.056933
1773140840.869331,-1.113305,-1.036933,0.000237,-0.647682,-0.451864,0.229578,0.500604,0.863624,0.059578
1773140840.891005,-1.165037,-1.003227,0.169240,-0.811504,-0.098868,0.229986,0.504194,0.860771,0.069728
1773140840.909562,-1.176062,-0.975433,0.207883,-1.146875,0.160714,0.730078,0.511694,0.854828,0.086246
1773140840.929695,-0.986836,-0.506143,0.336247,-1.885134,0.261943,1.449460,0.529896,0.840387,0.113842
1773140840.949731,-0.736725,0.369715,0.543829,-2.056254,0.586856,1.672925,0.556015,0.817007,0.152796
1773140840.969974,-0.323266,1.663052,0.879252,-1.909859,1.858073,0.664263,0.572838,0.795719,0.196691
1773140840.990073,0.760526,3.504589,0.550660,-0.041660,2.555173,-1.518300,0.556964,0.794483,0.242050
1773140841.009884,1.880015,3.389401,1.095579,-0.002247,2.672610,-2.920776,0.505239,0.819477,0.270541
1773140841.030094,1.777485,2.248609,0.916992,-0.903240,1.207962,-3.866959,0.437237,0.849307,0.295807
1773140841.050143,0.925968,1.964873,0.402095,-0.221061,2.311202,-4.249472,0.355663,0.877809,0.320866
1773140841.070351,0.963158,1.513334,0.234595,1.206337,3.028973,-4.223231,0.261223,0.907458,0.329065
1773140841.090530,1.181729,0.864054,0.160859,1.981430,2.784456,-4.086023,0.164782,0.935888,0.311386
1773140841.110478,1.011612,0.133817,0.045171,2.382712,2.635298,-3.944032,0.072769,0.958803,0.274592
1773140841.130660,0.821300,-0.433117,0.017452,2.308588,2.637260,-3.771963,-0.015758,0.972973,0.230381
1773140841.150784,0.799494,-0.830230,0.041958,2.221855,2.736482,-3.461963,-0.098292,0.978164,0.183124
1773140841.170838,0.963606,-1.140044,0.047152,2.302740,2.540923,-2.862475,-0.169249,0.976714,0.131849
1773140841.191330,1.120198,-1.422580,0.141410,2.256879,1.864711,-2.228931,-0.224172,0.971424,0.077996
1773140841.210975,1.165694,-1.838655,0.174263,2.059605,0.985779,-1.466022,-0.261733,0.964723,0.028390
1773140841.231173,1.090570,-2.289407,0.153139,1.307028,0.203601,-0.717721,-0.282846,0.959131,-0.008119
1773140841.251151,0.968798,-2.530239,0.138800,-0.062368,-0.253300,0.067681,-0.289858,0.956860,-0.020041
1773140841.271334,0.942489,-2.447520,0.049810,-0.954473,-0.801553,1.021195,-0.279205,0.960216,-0.005544
1773140841.291499,0.941377,-2.004300,-0.141629,-0.950342,-1.619791,1.822878,-0.251390,0.967694,0.019253
1773140841.311815,0.900252,-1.491012,-0.173473,-1.043103,-2.546520,2.896716,-0.204757,0.977600,0.048717
1773140841.331685,0.907461,-1.148162,0.004590,-0.936844,-3.107872,4.307404,-0.129828,0.988433,0.078388
1773140841.351812,0.943620,-0.747312,0.164328,-0.442650,-3.006524,5.377644,-0.026247,0.994963,0.096750
1773140841.371894,1.272951,0.501768,0.505919,-0.917394,-3.095805,5.876482,0.091353,0.989672,0.110475
1773140841.392039,2.548357,3.208100,-0.156126,0.299652,-2.933459,5.959886,0.218595,0.970428,0.102400
1773140841.412136,2.535591,3.473575,-0.246032,-0.691412,-4.047667,2.903492,0.310723,0.946896,0.082702
1773140841.432234,1.515408,2.932336,0.092791,-2.251684,-4.212525,1.097036,0.352893,0.931876,0.084104
1773140841.452212,0.598763,2.284971,0.421827,-2.421911,-4.000627,0.563626,0.374977,0.921649,0.099779
1773140841.472517,-0.227582,1.367155,0.324842,-1.714402,-3.630401,0.346935,0.391675,0.913607,0.109148
1773140841.492812,-0.738794,0.651287,0.199005,-0.601373,-3.150354,0.061439,0.402597,0.909519,0.103393
1773140841.512641,-0.933004,0.022241,0.271750,-0.037785,-2.665912,0.041412,0.408315,0.908942,0.084283
1773140841.532733,-0.939799,-0.547919,0.394354,-0.167081,-2.623968,0.480831,0.416697,0.906806,0.063776
1773140841.552676,-1.081064,-0.879030,0.535503,-0.581327,-2.492480,0.773467,0.431391,0.900866,0.048405
1773140841.575055,-1.220668,-0.783291,0.473529,-0.647417,-1.998885,0.916999,0.448924,0.892636,0.040845
1773140841.594744,-1.270421,-0.679644,0.220685,-0.185757,-1.433308,0.788596,0.466253,0.884066,0.032183
1773140841.612853,-1.294383,-0.821944,-0.078846,-0.023542,-0.907564,0.354453,0.477183,0.878494,0.023350
1773140841.633213,-1.200406,-1.042390,-0.145042,0.016334,-0.667524,-0.038764,0.480115,0.877061,0.015907
1773140841.653314,-1.170262,-1.035619,0.049176,-0.127317,-0.473749,-0.156656,0.477925,0.878332,0.010990
1773140841.673608,-1.249617,-0.930488,0.150018,-0.173389,-0.002485,0.039461,0.476729,0.878974,0.011557
1773140841.693860,-1.263705,-0.899731,0.281268,-0.026783,0.707464,0.233469,0.479159,0.877576,0.016355
1773140841.713499,-1.121770,-0.652834,0.347076,-0.216525,0.995253,0.652915,0.485951,0.873537,0.028000
1773140841.734029,-0.941370,0.086638,0.510501,-0.233978,1.496574,1.533669,0.503931,0.862673,0.043012
1773140841.753920,-0.627445,1.849388,0.913202,-0.379983,2.909469,1.160798,0.527668,0.846215,0.074072
1773140841.774116,0.745652,3.964102,0.165466,2.650846,2.772923,-1.338013,0.523849,0.847224,0.088288
1773140841.794297,2.210466,4.020066,0.556568,2.958386,4.528937,-3.521351,0.476347,0.875762,0.078320
1773140841.814371,2.467268,2.052629,0.842055,0.077816,0.860305,-4.710403,0.395082,0.915358,0.077653
1773140841.834445,1.482601,1.728034,0.389584,-0.641725,0.771717,-5.160524,0.300068,0.949746,0.089115
1773140841.854392,1.080795,1.457283,0.167211,0.298363,2.288440,-5.078951,0.197708,0.974983,0.101588
1773140841.874681,1.308639,0.525665,0.131733,0.845026,2.629332,-4.842836,0.094330,0.990891,0.096111
1773140841.895191,1.333629,-0.306723,0.152801,0.499613,2.161786,-4.464059,-0.003246,0.996466,0.083939
1773140841.914832,1.132161,-0.743941,0.116597,-0.046252,1.894687,-3.950443,-0.091008,0.992781,0.078120
1773140841.934724,0.961101,-0.958555,-0.033377,0.333281,2.014259,-3.164592,-0.165035,0.983625,0.072425
1773140841.954819,0.918509,-1.113877,-0.078478,1.062854,2.258428,-2.319722,-0.222174,0.973695,0.050569
1773140841.974916,1.027242,-1.546797,-0.151470,1.893217,1.756620,-1.396903,-0.259298,0.965743,0.010280
1773140841.995337,1.042740,-2.030324,-0.044308,1.500903,0.632929,-0.685957,-0.279297,0.959721,-0.030475
1773140842.015201,0.903356,-2.373682,0.085135,0.279440,-0.165282,0.077757,-0.285299,0.957178,-0.049140
1773140842.035233,0.768151,-2.421140,0.101137,-0.643406,-0.402330,1.230400,-0.273172,0.961011,-0.042833
1773140842.070365,0.748521,-2.142207,-0.020904,-0.821214,-0.770915,2.111998,-0.240327,0.970393,-0.024094
1773140842.081189,0.774831,-1.639441,-0.129401,-0.556393,-1.247251,2.630429,-0.193868,0.981009,-0.006021
1773140842.095732,0.768171,-1.259299,-0.253825,0.009019,-1.761228,3.180003,-0.136549,0.990622,0.004802
1773140842.115678,0.750836,-1.023803,-0.326260,0.202877,-2.429125,4.030003,-0.065091,0.997864,0.005627
1773140842.137678,0.911548,-0.385231,0.263883,0.015657,-2.467006,4.983958,0.026257,0.999641,0.005252
1773140842.155708,1.685131,1.421485,0.658564,0.921367,-1.710437,6.690895,0.140278,0.990090,-0.006632
1773140842.176044,2.699333,3.018211,0.522790,-0.925599,-1.897973,6.137825,0.278389,0.960274,-0.019310
1773140849.283942,-0.540176,0.467078,0.595294,1.864652,-0.629745,1.696909,0.951156,0.107095,-0.289538
1773140849.288479,-0.386893,0.540266,0.509855,1.340490,-0.611421,1.432334,0.950507,0.067095,-0.303373
1773140849.289685,-0.301904,0.651973,0.552714,1.100902,-0.487461,1.058901,0.947733,0.036275,-0.316997
1773140849.289764,0.101147,0.802355,0.589133,0.957971,0.169807,0.806331,0.947940,0.011411,-0.318243
1773140849.289841,0.676045,0.966483,0.580161,0.862745,-0.313419,0.147379,0.947353,-0.004050,-0.320167
1773140849.345995,0.611634,0.614179,0.830721,-0.013662,0.093719,-0.731862,0.946304,-0.001646,-0.323275
1773140849.346183,0.559710,0.357454,0.676463,-0.986261,0.740541,-1.578745,0.948713,0.024001,-0.315227
1773140849.346262,0.591437,0.534919,0.601901,-0.705136,1.620319,-2.247631,0.953942,0.066826,-0.292453
1773140849.363168,0.702760,0.605121,0.549663,0.534709,2.604454,-2.681909,0.960997,0.115353,-0.251353
1773140849.382622,0.863639,0.467964,0.546656,1.822105,3.142524,-2.944056,0.966180,0.164864,-0.198283
1773140849.402802,0.896860,0.208105,0.555219,2.646012,3.231631,-3.034157,0.965750,0.215525,-0.144483
1773140849.422907,0.763843,-0.026661,0.537225,2.854248,3.039921,-2.987143,0.958691,0.267246,-0.097421
1773140849.443852,0.554081,-0.184424,0.442888,2.755381,3.013494,-2.948031,0.945873,0.319571,-0.056551
1773140849.463077,0.412423,-0.232552,0.451515,2.368183,3.041933,-2.881051,0.927711,0.372918,-0.016899
1773140849.483568,0.312244,-0.336521,0.370050,2.566469,2.851025,-2.655470,0.905331,0.424305,0.018469
1773140849.503550,0.113529,-0.596315,0.256093,2.826398,2.619872,-2.520302,0.880368,0.472368,0.042674
1773140849.523622,-0.077836,-0.772468,0.277491,2.691809,2.559419,-2.302532,0.853623,0.517432,0.059927
1773140849.543839,-0.198328,-0.821954,0.294368,2.480613,2.488418,-1.895028,0.827310,0.556726,0.074926
1773140849.563727,-0.234904,-0.887249,0.261906,2.188597,2.374745,-1.483238,0.803981,0.588116,0.087948
1773140849.584105,-0.227675,-0.917253,0.299089,1.615567,2.072878,-1.088243,0.784316,0.612153,0.100584
1773140849.604111,-0.236971,-0.930324,0.329262,0.849643,1.937350,-0.713816,0.768847,0.628825,0.115989
1773140849.624541,-0.223269,-0.786087,0.299192,0.180533,1.938667,-0.415668,0.756671,0.638717,0.139605
1773140849.644486,-0.104564,-0.639601,0.213631,0.097824,1.869572,-0.128208,0.747310,0.643064,0.167320
1773140849.664635,0.034178,-0.567425,0.256418,0.184888,1.707210,0.191028,0.741106,0.643429,0.191732
1773140849.684855,0.162948,-0.463667,0.245896,0.063662,1.487452,0.463906,0.739044,0.638868,0.213684
1773140849.704971,0.280335,-0.300518,0.227872,-0.390388,1.302741,0.827679,0.740798,0.628643,0.236698
1773140849.724978,0.318274,-0.103931,0.095120,-0.641298,1.052567,1.013847,0.746561,0.611912,0.261173
1773140849.744837,0.275072,0.013721,0.031102,-0.683039,0.807836,0.980806,0.753752,0.592999,0.283214
1773140849.765089,0.216838,0.077134,0.068372,-0.717888,0.612171,0.795078,0.760152,0.575302,0.301989
1773140849.785862,0.175984,0.096590,0.092340,-0.932073,0.599978,0.661928,0.764629,0.559186,0.320395
1773140849.805281,0.131244,0.151359,0.005016,-1.247826,0.595645,0.552048,0.767347,0.542504,0.341862
1773140849.825540,0.175836,0.209901,-0.086926,-1.141071,0.720921,0.544690,0.768485,0.525573,0.364972
1773140849.846170,0.453938,0.337044,0.045928,-0.700274,0.594132,0.685493,0.769756,0.509102,0.385087
1773140849.865478,0.625813,0.493738,0.227773,-0.246352,0.306662,0.699268,0.773250,0.494238,0.397257
1773140849.885848,0.312776,0.452893,0.195460,0.021970,0.297010,0.282732,0.776457,0.485309,0.401982
1773140849.905805,0.097520,0.348485,0.190031,-0.107456,0.569918,-0.364084,0.772338,0.485865,0.409182
1773140849.926793,0.289247,0.384955,0.274402,-0.309420,0.507545,-0.886371,0.761656,0.493662,0.419736
1773140849.945922,0.429966,0.503179,0.452130,-0.624434,0.596432,-1.440848,0.745495,0.507197,0.432422
1773140849.965938,0.546282,0.434250,0.509302,-1.087741,0.767081,-1.944444,0.721663,0.524872,0.451346
1773140849.986387,0.510811,0.314535,0.525364,-2.063981,1.048295,-2.305537,0.690575,0.540720,0.480343
1773140850.006333,0.327638,0.371075,0.551223,-2.987819,1.739701,-2.691795,0.649520,0.548236,0.526841
1773140850.026397,0.343418,0.545548,0.531760,-3.110669,2.749761,-3.148185,0.591977,0.549560,0.589532
1773140850.046305,0.559763,0.591398,0.356874,-2.352183,3.534401,-3.475127,0.515311,0.552081,0.655486
1773140850.066607,0.709600,0.423546,0.300962,-1.767940,4.072657,-3.683412,0.422862,0.558602,0.713549
1773140850.086900,0.768938,0.285072,0.290411,-1.468672,4.509127,-3.750715,0.316694,0.562310,0.763880
1773140850.106724,0.769100,0.226142,0.121164,-1.130077,4.652374,-3.768217,0.201649,0.561288,0.802679
1773140850.126813,0.671132,0.069875,-0.050015,-0.699762,4.687474,-3.710030,0.082637,0.557307,0.826184
1773140850.146682,0.667576,-0.206080,-0.266440,-0.352191,4.543622,-3.495693,-0.035053,0.549784,0.834571
1773140850.167058,0.685817,-0.281309,-0.546970,0.240075,4.096784,-3.202579,-0.144618,0.542005,0.827838
1773140850.187265,0.701382,-0.452780,-0.588620,1.063802,3.524244,-2.742698,-0.239758,0.541007,0.806120
1773140850.207054,0.790234,-0.746753,-0.507141,1.308359,2.833618,-2.037319,-0.316769,0.547992,0.774185
1773140850.227324,0.968883,-1.068462,-0.249080,0.840397,2.492781,-0.857733,-0.373150,0.553828,0.744334
1773140850.247530,1.074087,-1.193040,-0.255259,1.303572,2.438367,0.383166,-0.411947,0.566208,0.713938
1773140850.270655,1.097249,-1.156902,-0.273335,3.069250,2.678442,1.625622,-0.435231,0.604335,0.667348
1773140850.287469,1.053388,-1.015094,-0.105451,4.884418,3.042483,2.628741,-0.443677,0.673724,0.590971
1773140850.307366,0.919417,-1.082570,0.227733,5.647655,3.539943,3.282460,-0.435973,0.758809,0.483877
1773140850.327776,0.815523,-1.099002,0.373704,5.122716,4.042529,3.576311,-0.412965,0.834445,0.364914
1773140850.347965,0.741569,-0.892016,0.311364,4.576526,4.489473,3.723965,-0.375358,0.893282,0.247290
1773140850.368070,0.623538,-0.537050,0.124542,3.493458,4.748700,3.501915,-0.325885,0.935274,0.138062
1773140850.388407,0.548602,-0.416870,-0.180497,2.552216,4.223037,3.133927,-0.271548,0.960876,0.054582
1773140850.408211,0.491054,-0.414092,-0.296936,1.846212,3.643343,2.891609,-0.214870,0.976608,-0.008270
1773140850.428127,0.469016,-0.483591,-0.650815,1.206228,3.126547,3.066669,-0.154730,0.986719,-0.049441
1773140850.448272,0.347895,-0.251876,-0.797233,4.562863,1.730461,2.417783,-0.095102,0.988753,-0.115426
1773140850.468642,0.725271,0.667880,-1.801456,6.953625,2.093239,3.726227,-0.031988,0.973126,-0.228039
1773140850.489275,0.297610,-0.535014,-1.442369,4.856087,2.266061,3.579409,0.054700,0.935389,-0.349364
1773140850.508950,0.694608,-1.036156,-1.732314,-3.475464,1.029846,1.853967,0.115481,0.924249,-0.363908
1773140850.529007,0.988926,-0.655956,-0.850258,-1.626828,-0.250691,3.458019,0.173565,0.936184,-0.305671
1773140850.548878,0.457999,1.458795,0.045300,-1.540620,-0.735812,3.034063,0.233758,0.934058,-0.269986
1773140850.569171,1.331605,2.149963,-1.605467,4.389999,1.100820,3.126725,0.287215,0.906571,-0.309252
1773140850.589315,1.448456,0.874241,-1.404794,3.006069,0.188942,2.459193,0.343368,0.861019,-0.375159
1773140850.609285,2.199495,0.867367,-1.344537,0.075653,-2.980185,1.235384,0.364531,0.838031,-0.405982
1773140850.629416,2.504010,1.532616,-1.600479,1.065136,-5.390170,0.710216,0.342640,0.827583,-0.444641
1773140850.649440,2.075566,1.135939,-2.021429,2.855871,-4.802057,1.060529,0.305675,0.803697,-0.510523
1773140850.670771,2.231361,1.011493,-1.538134,3.490103,-5.534025,1.547027,0.269768,0.759763,-0.591596
1773140850.689772,2.323376,0.968968,-0.301074,2.165885,-7.700556,2.054338,0.210911,0.714107,-0.667508
1773140850.709759,1.314870,-0.306765,2.720160,0.734578,-12.846813,-0.018707,0.108988,0.719165,-0.686239
1773140850.729625,-0.516828,8.504631,3.175896,1.683390,-6.967833,3.332448,0.027570,0.617607,-0.786003
1773140850.750003,-0.563751,-5.049607,3.341353,0.801337,-4.733040,3.429178,-0.051041,0.636475,-0.769607
1773140850.770109,0.058628,1.283455,3.944628,-8.242002,-2.131531,-0.183317,-0.067661,0.700966,-0.709978
1773140850.790236,1.286000,-0.444097,2.205405,3.018243,-3.883637,-0.235108,-0.122670,0.737951,-0.663611
1773140850.810276,0.186091,0.203470,3.128222,2.364002,1.165800,0.299884,-0.158503,0.685980,-0.710146
1773140850.830423,0.787089,-1.488661,2.537135,-0.346450,0.100013,0.588363,-0.133540,0.662932,-0.736674
1773140850.850382,0.459566,-0.547201,2.225652,-3.013423,-0.630201,0.462480,-0.134096,0.697210,-0.704213
1773140850.870664,-0.199133,0.204845,1.586100,-2.772375,0.277157,0.241285,-0.131036,0.739384,-0.660410
1773140850.890861,-0.220019,-0.200440,1.199469,-2.778691,0.940381,0.206834,-0.119947,0.774033,-0.621680
1773140850.911215,0.078627,-0.348739,0.799101,-3.291188,0.892490,0.344826,-0.103727,0.811706,-0.574782
1773140850.931132,0.140221,0.030120,0.482120,-3.122189,0.889437,0.502928,-0.087502,0.848451,-0.521991
1773140850.951099,0.088379,0.240014,0.066582,-2.460251,0.947951,0.596291,-0.068481,0.877219,-0.475181
1773140850.971142,0.138163,0.202017,-0.015272,-2.391718,0.883176,0.675683,-0.048609,0.899744,-0.433702
1773140850.991366,0.216868,0.234330,-0.082583,-2.840391,0.463939,0.783659,-0.029337,0.922179,-0.385648
1773140851.011349,0.154086,0.488863,-0.325101,-1.672574,-0.018397,1.031798,-0.011493,0.939803,-0.341525
1773140851.031435,-0.010693,0.731993,-0.313988,-0.075602,0.035970,1.198494,0.010937,0.945833,-0.324470
1773140851.051872,0.006766,0.453217,-0.350178,1.066934,0.025573,1.154017,0.033182,0.941269,-0.336025
1773140851.071797,0.170378,0.180978,-0.291588,1.184821,-0.276443,1.208834,0.054429,0.931937,-0.358512
1773140851.091927,0.217194,0.050200,-0.110144,0.530232,-0.652368,1.444604,0.075470,0.923677,-0.375665
1773140851.112079,0.143008,-0.058784,0.041748,-0.177473,-0.776878,1.703999,0.099134,0.919777,-0.379715
1773140851.132063,0.143041,-0.078987,0.006719,-0.383840,-0.753289,1.998817,0.127589,0.917733,-0.376149
1773140851.152174,0.206549,0.001231,0.070087,-0.973805,-0.737055,2.162542,0.160532,0.916432,-0.366581
1773140851.172914,0.262246,-0.043463,0.176321,-1.648449,-0.848169,2.269699,0.195838,0.918051,-0.344717
1773140851.192462,0.277634,-0.089130,0.191501,-1.976273,-0.995039,2.335168,0.232360,0.920353,-0.314578
1773140851.212104,0.282500,0.025594,0.193185,-1.713332,-1.087384,2.376493,0.269700,0.919856,-0.284829
1773140851.232206,0.275894,0.139301,0.154448,-1.042695,-1.195652,2.365927,0.307251,0.913846,-0.265487
1773140851.252308,0.245234,0.101225,0.120375,-0.561152,-1.277615,2.435587,0.344533,0.902009,-0.260146
1773140851.272665,0.168254,0.033232,0.234919,-1.013842,-1.282355,2.418060,0.381689,0.888033,-0.256343
1773140851.292871,0.185493,-0.025493,0.225148,-1.871966,-1.436415,2.339427,0.417306,0.876110,-0.241429
1773140851.314407,0.215544,0.068986,0.179093,-2.419829,-1.672302,2.098048,0.449266,0.866668,-0.216904
1773140851.333046,0.170659,0.152764,0.194085,-2.516914,-1.810297,1.778200,0.475795,0.858787,-0.190011
1773140851.353083,0.130247,0.157220,0.241021,-2.587879,-1.751989,1.498210,0.497438,0.851828,-0.164147
1773140851.373277,0.188045,0.131964,0.319522,-3.005331,-1.634044,1.396120,0.516789,0.845560,-0.134005
1773140851.393775,0.293588,0.137881,0.343577,-3.562880,-1.562384,1.374597,0.536505,0.838483,-0.095438
1773140851.413674,0.405413,0.195905,0.410856,-3.814417,-1.592517,1.510734,0.558149,0.828235,-0.049970
1773140851.433477,0.416544,0.266697,0.364977,-3.538079,-1.826557,1.684003,0.583715,0.811916,-0.008303
1773140851.453515,0.208891,0.353592,0.287192,-3.015606,-1.728388,1.789366,0.612185,0.790390,0.022668
1773140851.473601,-0.029839,0.284022,0.165087,-2.343817,-1.277266,1.797583,0.641381,0.765859,0.045729
1773140851.493872,-0.160217,0.274729,0.111533,-1.742977,-0.898265,1.728592,0.669678,0.739996,0.062753
1773140851.513805,-0.242335,0.299553,0.098853,-1.335037,-0.730076,1.512692,0.694331,0.715889,0.073541
1773140851.533942,-0.243405,0.209471,0.097323,-1.207948,-0.558253,1.451076,0.716260,0.692979,0.082166
1773140851.554038,-0.200432,0.186366,0.129084,-1.451413,-0.518097,1.392786,0.736733,0.669835,0.092443
1773140851.573979,-0.163176,0.186308,0.083277,-1.485835,-0.595540,1.286502,0.755660,0.646700,0.103720
1773140851.595146,-0.173153,0.220298,0.093119,-1.487646,-0.532528,1.134992,0.772487,0.624749,0.113805
1773140851.614428,-0.189557,0.182284,0.032446,-1.426071,-0.389817,0.985657,0.786634,0.604749,0.124445
1773140851.634712,-0.148525,0.141914,0.060071,-1.337016,-0.276162,0.872871,0.798641,0.586281,0.135822
1773140851.654824,-0.091820,0.153790,0.063146,-1.154844,-0.180000,0.829124,0.809151,0.569019,0.146601
1773140851.674860,-0.055021,0.169410,0.036705,-0.976926,0.005894,0.807779,0.818693,0.552315,0.157128
1773140851.695086,-0.007613,0.157926,-0.012988,-0.820623,0.102102,0.786441,0.827270,0.536150,0.167835
1773140851.714971,0.016381,0.136767,-0.038035,-0.698638,0.204277,0.710672,0.834770,0.520917,0.178340
1773140851.735256,0.039567,0.111479,-0.042247,-0.672367,0.289922,0.611732,0.840758,0.507143,0.189556
1773140851.755089,0.045482,0.079820,-0.084016,-0.514102,0.427490,0.590873,0.845418,0.494597,0.201600
1773140851.775144,0.048592,0.083106,-0.126619,-0.188705,0.591543,0.536534,0.848793,0.483453,0.214067
1773140851.795532,0.055386,0.074066,-0.185033,0.131394,0.651900,0.537853,0.851230,0.474121,0.224980
1773140851.815517,0.030786,-0.021761,-0.208473,0.407601,0.712883,0.558635,0.853324,0.466021,0.233802
1773140851.835684,0.026384,-0.064885,-0.205935,0.456001,0.713003,0.550915,0.855040,0.458531,0.242190
1773140851.855654,0.038000,-0.125410,-0.183673,0.248804,0.592738,0.503529,0.856714,0.451170,0.249973
1773140851.875687,0.037766,-0.127674,-0.157081,-0.146383,0.435367,0.421546,0.858246,0.443455,0.258384
1773140851.897742,0.026772,-0.116847,-0.146590,-0.392055,0.286243,0.414326,0.860054,0.434840,0.266875
1773140851.916145,0.010782,-0.098103,-0.163976,-0.527600,0.228427,0.433283,0.862356,0.424901,0.275320
1773140851.936085,0.030690,-0.037543,-0.183424,-0.537214,0.143240,0.430204,0.865001,0.414251,0.283140
1773140851.956273,0.038148,0.031279,-0.140635,-0.524001,0.031478,0.367559,0.867858,0.404283,0.288752
1773140851.976261,0.034282,0.048652,-0.067226,-0.640578,0.034573,0.307130,0.870488,0.394982,0.293666
1773140851.996402,0.019534,0.088049,-0.021320,-0.818108,0.095875,0.200205,0.872159,0.386011,0.300556
1773140852.016413,0.025348,0.127189,-0.031642,-0.822556,0.151235,0.077796,0.872449,0.378518,0.309124
1773140852.036523,0.040191,0.134576,0.005048,-0.936684,0.120090,-0.084342,0.871628,0.373083,0.317919
1773140852.056670,-0.009043,0.189139,0.085356,-1.197422,0.175775,-0.305609,0.869364,0.369363,0.328295
1773140852.076810,-0.091108,0.204386,0.135978,-1.426881,0.474852,-0.531388,0.864210,0.367742,0.343376
1773140852.097869,-0.074809,0.264649,0.183988,-1.597842,0.796169,-0.781259,0.854778,0.368194,0.365771
1773140852.117483,-0.049262,0.325644,0.208802,-1.627347,1.062319,-1.006746,0.841010,0.371255,0.393538
1773140852.136899,-0.096234,0.334673,0.244837,-1.850556,1.285834,-1.207439,0.823133,0.375486,0.425985
1773140852.157130,-0.168092,0.439959,0.225709,-1.915062,1.538090,-1.396343,0.800508,0.379606,0.463774
1773140852.177220,-0.163454,0.465160,0.151623,-1.539353,1.677834,-1.548659,0.773592,0.386082,0.502491
1773140852.197347,-0.109030,0.486595,0.140441,-1.252655,1.771051,-1.769799,0.742514,0.396935,0.539552
1773140852.217457,0.016482,0.389893,0.127968,-1.172204,1.728362,-1.898739,0.708097,0.410567,0.574485
1773140852.237847,0.068789,0.337706,0.153628,-1.435541,1.722020,-1.969687,0.671553,0.421678,0.609266
1773140852.257653,0.094439,0.230553,0.129699,-1.598545,1.709192,-1.940500,0.633619,0.428276,0.644288
1773140852.277865,0.134757,0.199885,0.008056,-1.545657,1.631796,-1.824093,0.595178,0.430104,0.678803
1773140852.298099,0.175956,0.248725,-0.094392,-1.415425,1.470297,-1.774333,0.557946,0.430490,0.709489
1773140852.318134,0.253773,0.062079,-0.157800,-1.737754,1.172222,-1.680159,0.523724,0.427132,0.737069
1773140852.338093,0.292611,-0.037209,-0.207309,-2.160177,0.822059,-1.458092,0.495414,0.413597,0.763873
1773140852.358045,0.219904,-0.082602,-0.360104,-1.934698,0.467671,-1.042724,0.475149,0.393531,0.786999
1773140852.378205,0.200339,-0.117604,-0.420954,-1.835861,0.049404,-0.654242,0.464563,0.371541,0.803828
1773140852.398459,0.309383,-0.127526,-0.479834,-1.674608,-0.205932,-0.417986,0.462788,0.347908,0.815345
1773140852.418523,0.434694,-0.113853,-0.216119,-1.566590,-0.108019,-0.300435,0.464293,0.324318,0.824166
1773140852.438521,0.607017,-0.016127,0.052183,-1.048385,0.532753,-0.094529,0.460427,0.302962,0.834399
1773140852.458877,0.806084,0.195487,0.399501,-0.120184,1.627608,-0.159086,0.441627,0.294397,0.847524
1773140852.478886,1.137346,-0.098284,-0.321846,2.967166,2.277203,0.713760,0.409208,0.310855,0.857857
1773140852.499050,0.890025,-0.796704,0.162235,0.661736,3.413841,0.142542,0.360830,0.346432,0.865902
1773140852.518992,1.399811,-0.185435,0.541409,-0.850739,3.931339,-0.160081,0.299148,0.333903,0.893879
1773140852.539169,1.037226,1.198707,0.477178,0.909947,4.172357,0.063216,0.221792,0.321267,0.920650
1773140852.559080,0.566183,0.180450,0.250071,1.779301,4.060171,0.197942,0.146784,0.349641,0.925314
1773140852.579290,0.428421,0.340632,0.063869,4.186901,4.450247,0.286334,0.068771,0.401708,0.913182
1773140852.599632,0.445903,0.575269,-0.003386,7.497341,4.879275,0.403616,-0.010661,0.505526,0.862746
1773140852.619593,0.394386,0.520762,0.283212,9.615986,5.204824,0.209572,-0.089836,0.645803,0.758201
1773140852.639578,0.252301,0.684975,0.342411,12.183162,5.399503,-0.430520,-0.163541,0.792580,0.587429
1773140852.659665,0.123154,0.862365,0.432681,14.971536,5.717092,-1.305777,-0.230454,0.915314,0.330289
1773140852.679807,0.108004,0.380147,0.671580,16.958836,5.760798,-2.424524,-0.283526,0.958934,-0.007655
1773140852.700105,0.226696,-0.136282,0.926026,16.139069,5.224710,-3.538066,-0.319989,0.878424,-0.354935
1773140852.720013,0.437948,-0.301370,0.769769,14.003553,3.978779,-3.799808,-0.333105,0.704949,-0.626169
1773140852.740233,0.499874,-0.323543,0.611520,11.319548,2.574426,-3.752099,-0.332287,0.495067,-0.802804
1773140852.760285,0.351867,-0.226659,0.553582,8.277586,1.815493,-3.637546,-0.325210,0.302709,-0.895882
1773140852.780496,0.362265,-0.233184,0.509594,5.822399,1.316672,-3.310861,-0.312003,0.151031,-0.938000
1773140852.800632,0.358506,-0.256794,0.322354,4.126268,0.752006,-3.003078,-0.298447,0.039448,-0.953610
1773140852.820592,0.298009,0.009038,0.138095,3.761475,0.597335,-2.619204,-0.285298,-0.052144,-0.957019
1773140852.840715,0.194560,-0.010652,0.181549,3.004770,0.400845,-2.201645,-0.270838,-0.130964,-0.953674
1773140852.860672,0.148084,-0.031622,0.252728,2.076499,0.173014,-1.892232,-0.258954,-0.189463,-0.947125
1773140852.880865,0.059601,-0.024220,0.272829,1.731624,0.095400,-1.589783,-0.249070,-0.233699,-0.939866
1773140852.901135,0.002769,-0.005706,0.237117,1.629754,0.142864,-1.315426,-0.239616,-0.272523,-0.931835
1773140852.921428,0.009501,0.010292,0.171004,1.183489,0.175099,-1.049228,-0.229503,-0.304909,-0.924316
1773140852.961704,-0.012992,-0.046486,0.107738,0.633067,0.080885,-0.771161,-0.221215,-0.325310,-0.919368
1773140852.961877,-0.068663,0.009685,0.084904,0.532662,0.026325,-0.614687,-0.215761,-0.338206,-0.916004
1773140852.981574,-0.101278,0.042119,0.091480,0.625298,0.079916,-0.535122,-0.210811,-0.351262,-0.912236
1773140853.001182,-0.178680,-0.042906,0.152057,0.487938,0.135609,-0.554854,-0.204911,-0.363710,-0.908695
1773140853.021935,-0.163597,-0.019641,0.044479,0.421973,0.155488,-0.543851,-0.197944,-0.374128,-0.906006
1773140853.041489,-0.147212,-0.030077,-0.009248,0.424831,0.096955,-0.581305,-0.191442,-0.383558,-0.903456
1773140853.061672,-0.160288,-0.004011,0.045645,0.594912,0.139269,-0.676430,-0.184499,-0.395021,-0.899954
1773140853.081902,-0.138349,-0.047354,0.099125,0.721395,0.140334,-0.766897,-0.176089,-0.409555,-0.895130
1773140853.101719,-0.115503,-0.020258,0.103028,0.808883,0.162852,-0.846255,-0.166465,-0.425955,-0.889299
1773140853.121917,-0.067837,-0.007090,0.067323,0.822044,0.123589,-0.902009,-0.156131,-0.443380,-0.882631
1773140853.141996,-0.029154,0.055370,0.048035,0.914696,0.104241,-0.890265,-0.146032,-0.461254,-0.875168
1773140853.162177,0.002816,0.073506,0.046895,0.924069,0.056815,-0.835436,-0.136315,-0.479863,-0.866689
1773140853.182476,0.019871,0.079029,0.078491,0.833660,-0.037464,-0.766899,-0.128117,-0.497150,-0.858154
1773140853.203134,-0.000544,0.050694,0.109913,0.594362,-0.128945,-0.708217,-0.122030,-0.510991,-0.850880
1773140853.222647,-0.007119,0.086737,0.072873,0.491151,-0.185084,-0.639533,-0.117439,-0.521368,-0.845212
1773140853.242589,-0.047550,0.047217,0.061990,0.354832,-0.262507,-0.606841,-0.114529,-0.528998,-0.840859
1773140853.262673,-0.082957,0.079180,0.060968,0.301036,-0.285477,-0.595729,-0.112478,-0.535113,-0.837259
1773140853.282751,-0.112700,0.049011,0.057827,0.218104,-0.310891,-0.563726,-0.111039,-0.540176,-0.834195
1773140853.303159,-0.139760,0.063841,0.067689,0.172669,-0.282696,-0.537417,-0.109996,-0.544249,-0.831682
1773140853.323172,-0.125189,0.066423,0.053837,0.164062,-0.260956,-0.536817,-0.108561,-0.548128,-0.829319
1773140853.343361,-0.098929,0.097462,0.034376,0.113579,-0.254564,-0.579710,-0.106714,-0.551442,-0.827360
1773140853.363242,-0.075762,0.095206,0.027043,0.058263,-0.259921,-0.655494,-0.104139,-0.553976,-0.825993
1773140853.383480,-0.053804,0.079569,-0.007937,0.104719,-0.273071,-0.741669,-0.100783,-0.556467,-0.824735
1773140853.403382,-0.026553,0.098153,0.000985,0.247508,-0.277206,-0.819579,-0.096586,-0.560768,-0.822320
1773140853.423606,-0.035980,0.066463,0.010155,0.323293,-0.231128,-0.832721,-0.091400,-0.567226,-0.818475
1773140853.443688,-0.014468,0.061413,0.026503,0.169937,-0.173395,-0.771008,-0.085355,-0.572705,-0.815306
1773140853.463686,0.017515,0.039558,-0.011365,0.008247,-0.153948,-0.692095,-0.079557,-0.575264,-0.814090
1773140853.483876,0.038281,0.086344,-0.057480,0.035777,-0.123903,-0.647689,-0.074200,-0.576242,-0.813904
1773140853.503858,0.063869,0.092078,-0.082199,0.168595,-0.108728,-0.636881,-0.068599,-0.578696,-0.812653
1773140853.524229,0.083309,0.065727,-0.071205,0.272628,-0.132207,-0.641140,-0.063061,-0.583213,-0.809868
1773140853.544268,0.080857,0.062539,-0.048059,0.214106,-0.172837,-0.635994,-0.058000,-0.588098,-0.806708
1773140853.564344,0.091075,0.084216,-0.029563,0.153757,-0.188951,-0.604593,-0.053523,-0.591540,-0.804497
1773140853.584406,0.112193,0.064222,-0.061208,0.162496,-0.229481,-0.578991,-0.049800,-0.594694,-0.802409
1773140853.604456,0.115462,0.060398,-0.069873,0.149715,-0.262260,-0.541516,-0.047011,-0.597706,-0.800336
1773140853.624512,0.113273,0.053135,-0.033226,0.121520,-0.288078,-0.477398,-0.045341,-0.600345,-0.798455
1773140853.644895,0.094680,0.021188,0.001293,0.011140,-0.313667,-0.424012,-0.044662,-0.601769,-0.797420
1773140853.665133,0.081209,0.005863,0.016099,-0.014663,-0.308358,-0.379043,-0.044832,-0.601871,-0.797334
1773140853.685068,0.080136,0.022078,0.025800,-0.013259,-0.297399,-0.355081,-0.045224,-0.601988,-0.797224
1773140853.705267,0.070446,0.026187,0.024591,-0.053881,-0.279853,-0.325149,-0.045727,-0.601672,-0.797433
1773140853.725448,0.053901,0.032707,0.011341,-0.018920,-0.252412,-0.293302,-0.046318,-0.601249,-0.797718
1773140853.745571,0.060770,0.044554,0.020917,-0.007601,-0.238921,-0.267511,-0.046870,-0.601256,-0.797681
1773140853.765507,0.051651,0.030450,0.013631,-0.023093,-0.204647,-0.231876,-0.047455,-0.601220,-0.797673
1773140853.785537,0.067039,0.030661,0.011655,-0.062763,-0.210251,-0.197551,-0.048209,-0.600683,-0.798032
1773140853.805841,0.069102,0.021279,0.021220,-0.127675,-0.210297,-0.171678,-0.049311,-0.599297,-0.799006
1773140853.825833,0.085121,0.055872,-0.006939,-0.154688,-0.211051,-0.171357,-0.050667,-0.597071,-0.800587
1773140853.845903,0.093282,0.038112,-0.039035,-0.155450,-0.229215,-0.189390,-0.052206,-0.594814,-0.802167
1773140853.866023,0.066030,0.009616,-0.032685,-0.158259,-0.247797,-0.194638,-0.053884,-0.592410,-0.803833
1773140853.885816,0.064382,0.031280,-0.030279,-0.131409,-0.235757,-0.197471,-0.055455,-0.590133,-0.805399
1773140853.906022,0.053816,-0.024198,-0.018624,-0.123638,-0.228950,-0.207778,-0.056852,-0.588396,-0.806571
1773140853.926114,0.053271,-0.007301,-0.033781,-0.102858,-0.233581,-0.229938,-0.058032,-0.586632,-0.807772
1773140853.946319,0.052464,0.004172,-0.038030,-0.049846,-0.227402,-0.228026,-0.059040,-0.585700,-0.808375
1773140853.966780,0.042687,-0.009979,-0.020091,-0.056545,-0.221241,-0.214721,-0.060067,-0.584991,-0.808812
1773140853.986438,0.039444,-0.014599,-0.013386,-0.058679,-0.222807,-0.218318,-0.061111,-0.584262,-0.809261
1773140854.006702,0.048872,-0.008061,-0.021115,-0.026436,-0.213510,-0.196819,-0.062193,-0.583736,-0.809558
1773140854.026936,0.057372,-0.017278,0.000394,-0.032886,-0.199942,-0.171912,-0.063415,-0.583506,-0.809629
1773140854.047042,0.051472,-0.028136,0.001530,-0.068236,-0.185579,-0.145477,-0.064701,-0.582826,-0.810017
1773140854.067184,0.052585,-0.020973,-0.003925,-0.071113,-0.160283,-0.126911,-0.066013,-0.581734,-0.810696
1773140854.087133,0.063051,-0.003636,-0.001121,-0.061891,-0.140530,-0.113446,-0.067019,-0.580837,-0.811257
1773140854.107260,0.058130,-0.005560,0.001459,-0.076563,-0.128404,-0.122446,-0.067834,-0.579737,-0.811975
1773140854.127152,0.054363,0.004789,-0.000094,-0.028655,-0.099029,-0.109506,-0.068370,-0.578962,-0.812483
1773140854.147359,0.057940,-0.006926,0.012759,-0.063596,-0.077932,-0.084918,-0.068636,-0.578432,-0.812838
1773140854.168142,0.071186,-0.014230,0.014105,-0.135054,-0.072037,-0.041400,-0.069141,-0.576819,-0.813940
1773140854.187928,0.064725,0.003576,-0.001004,-0.122066,-0.040638,-0.020376,-0.069791,-0.574499,-0.815525
1773140854.207970,0.065019,0.009511,0.007708,-0.066386,0.003470,0.000342,-0.069948,-0.573048,-0.816531
1773140854.227802,0.066029,0.004935,0.016191,-0.069210,0.038950,0.018665,-0.069706,-0.571860,-0.817384
1773140854.248022,0.064364,0.004743,0.011772,-0.069665,0.076135,0.033510,-0.069018,-0.570646,-0.818291
1773140854.268460,0.057870,0.002253,0.020331,-0.095451,0.103993,0.063696,-0.068063,-0.569163,-0.819403
1773140854.288417,0.053201,0.015171,0.014962,-0.086035,0.143265,0.100346,-0.066964,-0.567463,-0.820671
1773140854.308366,0.053530,0.018808,-0.000147,-0.068674,0.173398,0.114768,-0.065569,-0.565927,-0.821844
1773140854.328531,0.049678,0.012930,-0.016603,-0.061893,0.181139,0.107080,-0.063868,-0.564734,-0.822798
1773140854.348493,0.042632,0.033602,-0.016196,-0.044678,0.196505,0.104604,-0.061904,-0.563647,-0.823693
1773140854.368552,0.034286,0.007277,-0.020538,-0.053232,0.198918,0.115228,-0.059844,-0.562697,-0.824494
1773140854.388570,0.032811,0.012306,-0.022542,-0.047233,0.187633,0.128873,-0.058003,-0.561577,-0.825389
1773140854.408612,0.024690,0.031120,-0.026007,0.012801,0.183810,0.145563,-0.056428,-0.561088,-0.825831
1773140854.428981,0.015540,0.038205,-0.026585,0.053875,0.198588,0.160604,-0.054923,-0.561459,-0.825680
1773140854.449000,0.024707,0.023373,-0.008423,0.007768,0.169033,0.184044,-0.053775,-0.561901,-0.825455
1773140854.469294,0.018116,0.031971,-0.005800,-0.047234,0.143719,0.203374,-0.053395,-0.561222,-0.825941
1773140854.489324,0.013756,0.043183,-0.018977,-0.050612,0.136148,0.218562,-0.053460,-0.560105,-0.826695
1773140854.509167,0.012657,0.055836,-0.036947,-0.028666,0.127525,0.220729,-0.053719,-0.559147,-0.827326
1773140854.529428,0.003854,0.043506,-0.034183,-0.030572,0.110307,0.225990,-0.054193,-0.558353,-0.827832
1773140854.549746,0.001805,0.057502,-0.038607,-0.000530,0.122297,0.222335,-0.054753,-0.557776,-0.828183
1773140854.569682,0.009950,0.033985,-0.039374,-0.007141,0.110164,0.218242,-0.055238,-0.557529,-0.828317
1773140854.589660,0.016113,0.028543,-0.040095,-0.032807,0.085083,0.206441,-0.055984,-0.556803,-0.828756
1773140854.609735,0.011367,0.026983,-0.038859,-0.007635,0.070060,0.209376,-0.056960,-0.556204,-0.829092
1773140854.630014,0.005965,0.032195,-0.053673,-0.000187,0.065028,0.220030,-0.058181,-0.555892,-0.829216
1773140854.650121,-0.003379,0.021275,-0.042085,-0.007326,0.050768,0.232197,-0.059777,-0.555440,-0.829405
1773140854.670188,-0.006733,0.037644,-0.036326,0.028807,0.068771,0.253891,-0.061398,-0.555344,-0.829351
1773140854.690183,0.002868,0.030331,-0.026979,-0.004573,0.062030,0.264032,-0.063156,-0.555157,-0.829344
1773140854.710587,-0.000530,0.038484,-0.006388,-0.006636,0.065973,0.282448,-0.065205,-0.554659,-0.829519
1773140854.730463,0.001484,0.046183,-0.017530,-0.006794,0.075438,0.281868,-0.067173,-0.554132,-0.829714
1773140854.750712,0.000694,0.049237,-0.011481,-0.012246,0.078951,0.266957,-0.068931,-0.553540,-0.829965
1773140854.770711,-0.004094,0.051213,-0.017517,-0.016716,0.085730,0.261510,-0.070491,-0.552968,-0.830215
1773140854.790753,-0.008628,0.048396,-0.017367,-0.023482,0.090691,0.246654,-0.071832,-0.552180,-0.830625
1773140854.811142,-0.014071,0.047308,0.000327,-0.050609,0.095832,0.243584,-0.072950,-0.551168,-0.831199
1773140854.830930,-0.013256,0.044075,0.002689,-0.091001,0.098379,0.228355,-0.073917,-0.549477,-0.832233
1773140854.851130,-0.017119,0.057184,-0.005801,-0.061604,0.115861,0.209183,-0.074571,-0.547846,-0.833249
1773140854.871333,-0.021887,0.051504,-0.009187,-0.048930,0.129237,0.198724,-0.074777,-0.546560,-0.834075
1773140854.891205,-0.019549,0.036789,-0.017283,-0.058494,0.137680,0.187903,-0.074644,-0.545380,-0.834859
1773140854.911640,-0.010097,0.023172,-0.022497,-0.087080,0.127110,0.183916,-0.074422,-0.543787,-0.835917
1773140854.931395,-0.000917,0.025542,-0.023795,-0.065666,0.110448,0.186251,-0.074416,-0.542144,-0.836984
1773140854.951785,-0.006333,0.015096,-0.028103,-0.049871,0.103129,0.180923,-0.074553,-0.540883,-0.837787
1773140854.971811,0.000885,0.004374,-0.023869,-0.074300,0.082567,0.179718,-0.074906,-0.539592,-0.838588
1773140854.991809,0.000751,0.012362,-0.030087,-0.080933,0.067868,0.187938,-0.075642,-0.537813,-0.839664
1773140855.012039,0.000853,0.023426,-0.036850,-0.044238,0.064163,0.197288,-0.076628,-0.536365,-0.840500
1773140855.031907,0.002121,0.030141,-0.037425,-0.027856,0.064693,0.196778,-0.077621,-0.535497,-0.840962
1773140855.052364,-0.001332,0.016459,-0.022553,-0.071652,0.056516,0.185604,-0.078624,-0.534327,-0.841614
1773140855.072469,-0.000693,0.038399,-0.024770,-0.068357,0.054042,0.182899,-0.079644,-0.532738,-0.842524
1773140855.092396,-0.007630,0.040010,-0.032212,-0.058660,0.050328,0.160943,-0.080597,-0.531282,-0.843353
1773140855.112559,-0.005038,0.050430,-0.043301,-0.023008,0.059959,0.141216,-0.081205,-0.530334,-0.843891
1773140855.132870,0.000194,0.042554,-0.039976,-0.018391,0.053128,0.124898,-0.081630,-0.529736,-0.844225
1773140855.152664,0.002699,0.045612,-0.026397,-0.020814,0.043403,0.112441,-0.082045,-0.529163,-0.844544
1773140855.172984,0.004172,0.036328,-0.037726,-0.033889,0.023275,0.097369,-0.082587,-0.528408,-0.844964
1773140855.192850,0.006859,0.052291,-0.050471,0.001988,0.013713,0.089713,-0.083229,-0.527922,-0.845205
1773140855.213130,0.004022,0.040143,-0.047627,0.002295,0.006275,0.089352,-0.083993,-0.527890,-0.845149
1773140855.232910,0.004701,0.037309,-0.030526,-0.055270,-0.016017,0.080793,-0.084993,-0.527223,-0.845466
1773140855.255289,-0.002694,0.034649,-0.025572,-0.059747,-0.026390,0.055997,-0.086113,-0.525921,-0.846163
1773140855.273518,-0.005643,0.041194,-0.019304,-0.024616,-0.006650,0.041021,-0.086856,-0.525142,-0.846571
1773140855.293406,-0.006269,0.028897,-0.009561,-0.040365,0.003754,0.028179,-0.087191,-0.524457,-0.846961
1773140855.313276,-0.002357,0.031484,-0.023156,-0.036134,0.004965,0.027043,-0.087380,-0.523610,-0.847465
1773140855.333217,0.003592,0.037257,-0.025094,0.003526,0.006306,0.023157,-0.087531,-0.523265,-0.847663
1773140855.353342,0.013993,0.032838,-0.015890,-0.019901,-0.002119,0.019438,-0.087662,-0.523164,-0.847712
1773140855.373883,0.017372,0.043423,-0.025619,-0.023194,-0.010516,0.020257,-0.088020,-0.522549,-0.848054
1773140855.393826,0.013584,0.038340,-0.032520,-0.006568,-0.011231,0.043938,-0.088551,-0.522318,-0.848141
1773140855.414052,0.020343,0.030996,-0.012486,-0.060021,-0.026967,0.069221,-0.089466,-0.521642,-0.848460
1773140855.434251,0.025553,0.034570,-0.000117,-0.101871,-0.036600,0.089436,-0.090892,-0.519937,-0.849355
1773140855.454168,0.026831,0.061494,0.009444,-0.123797,-0.031750,0.103705,-0.092444,-0.517823,-0.850478
1773140855.474313,0.033571,0.070478,0.044464,-0.217460,-0.023490,0.132277,-0.094118,-0.514753,-0.852157
1773140855.494337,0.059160,0.099202,0.096794,-0.440616,-0.034622,0.221620,-0.096361,-0.508900,-0.855415
1773140855.514727,0.112556,0.149225,0.218899,-0.946059,-0.066845,0.413731,-0.100334,-0.496912,-0.861981
1773140855.534539,0.167905,0.213194,0.416198,-1.960513,-0.119704,0.725825,-0.107359,-0.471022,-0.875564
1773140855.554583,0.199623,0.254647,0.611809,-3.325737,-0.212056,1.068083,-0.118370,-0.422082,-0.898797
1773140855.574788,0.226155,0.249170,0.775845,-4.755202,-0.346296,1.376177,-0.132985,-0.344629,-0.929272
1773140855.594857,0.244024,0.203109,0.904714,-6.205857,-0.376070,1.639519,-0.148931,-0.236129,-0.960241
1773140855.615263,0.275198,0.155623,1.034906,-7.566184,-0.358542,1.902212,-0.161932,-0.095793,-0.982141
1773140855.635262,0.272320,0.080911,1.172309,-9.104265,-0.416549,2.088976,-0.169933,0.075613,-0.982550
1773140855.655121,0.266403,0.003257,1.306698,-10.893580,-0.553359,2.360709,-0.171371,0.277062,-0.945446
1773140855.675046,0.257963,0.000837,1.326545,-12.590129,-0.717078,2.817779,-0.162657,0.499956,-0.850639
1773140855.695308,0.270496,0.013506,1.100381,-13.371003,-0.841213,3.480280,-0.136173,0.712264,-0.688576
1773140855.715797,0.310088,0.089815,0.582289,-12.639377,-1.156299,4.146022,-0.085967,0.876097,-0.474409
1773140855.735831,0.385545,0.370282,0.341502,-10.810522,-1.513979,4.596703,-0.013612,0.966648,-0.255748
1773140855.755849,0.323261,0.591221,0.276161,-9.755012,-2.016742,4.613143,0.072888,0.995998,-0.051719
1773140855.775690,0.211744,0.487821,0.394529,-9.180810,-2.126636,4.607140,0.166217,0.977847,0.127231
1773140855.795747,0.249756,0.637990,0.426861,-10.945766,-1.995000,4.339266,0.261230,0.914180,0.309894
1773140855.815921,0.447995,1.044685,0.232175,-12.132234,-3.170866,3.398820,0.349536,0.795327,0.495257
1773140855.835738,0.498009,1.351533,0.199121,-10.874147,-4.671508,2.379272,0.437492,0.637679,0.634009
1773140855.856041,0.245854,1.170262,0.427644,-6.086940,-4.056840,2.007124,0.522945,0.499858,0.690414
1773140855.876039,0.077887,1.182988,0.626439,-0.057544,-2.602998,1.672300,0.586343,0.438853,0.680889
1773140855.896066,0.056774,1.311737,0.901977,1.752548,-1.535852,0.844634,0.624622,0.439530,0.645493
1773140855.916395,0.080413,0.898697,0.907667,0.316364,-1.034091,0.192245,0.644990,0.448761,0.618548
1773140855.936602,0.033073,0.630047,0.852278,-1.711451,-0.564717,-0.185700,0.654916,0.439320,0.614885
1773140855.956533,-0.140769,0.774370,0.664123,-2.128360,0.100101,-0.521689,0.655219,0.417769,0.629410
1773140855.976580,-0.196684,0.946565,0.581557,-1.348210,0.781723,-0.985223,0.643309,0.404402,0.650086
1773140855.996807,-0.193632,0.880659,0.511710,-0.579579,1.346240,-1.480336,0.618986,0.408037,0.671091
1773140856.016993,-0.134427,0.751711,0.441581,-0.702651,1.657463,-1.952861,0.583784,0.421064,0.694192
1773140856.037185,-0.064928,0.623673,0.400332,-1.396396,1.833945,-2.323143,0.540483,0.430359,0.722959
1773140856.057074,-0.017951,0.676563,0.477806,-1.980960,2.161558,-2.735356,0.489219,0.430798,0.758339
1773140856.077081,0.090647,0.660498,0.448346,-1.998381,2.590091,-3.034244,0.426839,0.425547,0.797947
1773140856.097377,0.215882,0.621591,0.440456,-1.920430,2.954983,-3.292593,0.354644,0.418264,0.836231
1773140856.117589,0.311057,0.635728,0.372767,-1.771351,3.342152,-3.519537,0.271920,0.408111,0.871496
1773140856.138126,0.454552,0.461084,0.190004,-1.410120,3.494445,-3.535827,0.182060,0.395789,0.900114
1773140856.157442,0.490513,0.308232,0.042080,-1.011628,3.504341,-3.444482,0.090480,0.383418,0.919133
1773140856.177686,0.460856,0.116393,-0.162665,-0.364484,3.368646,-3.251099,0.000906,0.373414,0.927665
1773140856.197821,0.488021,-0.097625,-0.282087,0.390844,3.096167,-2.925082,-0.082687,0.371429,0.924772
1773140856.217865,0.574340,-0.214934,-0.349881,0.821705,2.748256,-2.481299,-0.156585,0.376326,0.913160
1773140856.238013,0.696330,-0.328626,-0.240602,0.927108,2.473021,-1.791182,-0.219935,0.383847,0.896822
1773140856.258517,0.903768,-0.688166,-0.167485,1.062379,2.523047,-0.607872,-0.274297,0.395273,0.876653
1773140856.278751,1.045509,-0.934658,-0.305491,2.190103,2.633175,0.698275,-0.317909,0.421825,0.849116
1773140856.298551,1.040888,-0.803269,-0.399025,4.511776,2.971247,1.837588,-0.352777,0.485215,0.800072
1773140856.318336,0.941016,-0.842989,-0.202827,6.301593,3.368993,2.653289,-0.376654,0.585970,0.717475
1773140856.338348,0.855574,-0.995934,0.065905,6.811550,3.736852,3.157474,-0.386015,0.697183,0.604094
1773140856.358815,0.744989,-1.148834,0.227539,6.324687,4.051428,3.428435,-0.378122,0.794784,0.474701
1773140856.378796,0.646403,-0.971223,0.259364,5.291468,4.340055,3.462771,-0.354579,0.868684,0.345922
1773140856.399259,0.537813,-0.640389,0.108218,4.190870,4.462745,3.373875,-0.318300,0.919380,0.231138
1773140856.419113,0.401035,-0.428710,-0.270548,3.604900,3.746113,3.050066,-0.272907,0.952804,0.132991
1773140856.449365,0.259520,-0.411839,-0.478746,1.570012,3.567978,3.041259,-0.221403,0.973210,0.061998
1773140856.458907,0.143213,-0.658312,-1.305977,0.642405,2.576321,2.969845,-0.163949,0.986025,0.029594
1773140856.479067,0.129341,-0.241849,-0.989936,0.293786,1.687637,2.673616,-0.108208,0.993985,0.016868
1773140856.499035,0.135735,0.227497,-0.859519,1.342081,1.649485,2.674540,-0.056100,0.998425,-0.000985
1773140856.519473,0.365976,0.753403,-1.572552,3.592273,-0.014082,2.357197,-0.003213,0.998581,-0.053165
1773140856.539675,0.701781,0.095749,-1.093029,5.528090,1.823817,4.490376,0.065141,0.987304,-0.144870
1773140856.559669,0.502999,-1.017396,-1.056465,1.245256,1.941421,4.256606,0.158805,0.962419,-0.220298
1773140856.579799,1.066990,-1.402252,-0.536576,-1.696409,2.176492,3.262089,0.243648,0.949112,-0.199554
1773140856.599767,1.588489,1.014651,0.111332,-1.946740,-2.371894,2.354273,0.291119,0.944501,-0.152210
1773140856.620354,2.637663,2.906689,-1.324151,5.777534,-1.350601,4.423716,0.358034,0.909611,-0.210761
1773140856.640197,1.579849,0.213813,-1.368915,6.086077,-0.334267,4.468499,0.431824,0.840829,-0.326398
1773140856.660279,2.526489,-0.668691,-1.375843,0.873474,-3.076424,2.874895,0.482849,0.779852,-0.398357
1773140856.680378,3.066387,0.488101,-1.175802,-0.266121,-7.065721,2.295923,0.475361,0.755566,-0.450723
1773140856.700202,1.991680,1.276916,-1.193933,0.605376,-7.674545,2.768918,0.440281,0.729493,-0.523443
1773140856.720462,1.382735,1.215728,-0.527993,-0.378077,-8.924520,3.174291,0.389985,0.702195,-0.595679
1773140856.740598,0.786374,1.985121,1.309447,0.224789,-7.661376,2.977339,0.323169,0.692781,-0.644683
1773140856.762794,0.413591,4.941571,0.759039,0.608606,-7.654407,1.684616,0.247771,0.662921,-0.706503
1773140856.780820,-0.555692,0.205168,3.168779,1.006333,-2.894530,0.674395,0.178648,0.643831,-0.744021
1773140856.800899,0.479885,0.224065,3.183090,0.965408,-4.409588,0.629111,0.123249,0.612300,-0.780960
1773140856.821234,0.572945,-0.364440,3.330710,0.341880,-1.170900,0.323834,0.077705,0.602050,-0.794669
1773140856.841203,0.937255,-1.061109,3.607916,-2.038724,-1.697393,-0.148970,0.061830,0.611127,-0.789114
1773140856.861322,0.557119,-0.282121,2.756733,-4.182724,-1.679238,0.041332,0.033686,0.661821,-0.748905
1773140856.881493,-0.177463,0.097872,2.153820,-3.617601,-0.602773,0.112703,0.016544,0.718122,-0.695721
1773140856.901389,-0.566538,-0.211811,1.828882,-3.448514,0.852756,0.126423,0.019403,0.765018,-0.643716
1773140856.921662,-0.382374,-0.016108,1.416205,-3.375196,1.451512,0.129147,0.037174,0.807582,-0.588583
1773140856.941689,-0.098649,0.163999,0.908220,-2.981668,1.403936,0.095770,0.054765,0.843691,-0.534028
1773140856.961785,-0.050837,0.103470,0.533388,-2.398486,1.521248,0.302132,0.072825,0.870957,-0.485933
1773140856.981801,-0.056924,0.280970,0.308069,-1.960277,1.633520,0.468926,0.094842,0.890692,-0.444605
1773140857.002142,0.026264,0.462638,0.124555,-1.443352,1.713673,0.411406,0.117611,0.904291,-0.410398
1773140857.022338,0.197044,0.361152,0.039510,-0.765280,1.652014,0.318280,0.138055,0.911965,-0.386342
1773140857.042363,0.373158,0.169703,-0.030929,-0.771764,1.398715,0.138013,0.153789,0.916616,-0.369004
1773140857.062459,0.540234,0.205788,-0.043658,-1.371498,0.900779,0.153310,0.164676,0.923805,-0.345639
1773140857.082695,0.522479,0.311212,-0.180725,-1.273101,0.427212,0.317448,0.173352,0.932349,-0.317291
1773140857.102765,0.309025,0.416206,-0.225775,-0.818033,0.213286,0.355472,0.181850,0.937554,-0.296518
1773140857.122736,0.261046,0.405100,-0.319524,-0.588699,0.003992,0.360730,0.189302,0.940069,-0.283610
1773140857.142868,0.298853,0.297943,-0.351321,-0.916245,-0.385255,0.431081,0.195791,0.942551,-0.270672
1773140857.162817,0.197837,0.209778,-0.334716,-1.283441,-0.744866,0.567483,0.202203,0.946456,-0.251664
1773140857.183063,0.018911,0.235449,-0.274130,-1.458624,-0.940390,0.582723,0.209254,0.950648,-0.229089
1773140857.203117,-0.072266,0.315039,-0.318498,-1.459102,-1.083930,0.457598,0.215027,0.954935,-0.204603
1773140857.223326,-0.058422,0.364880,-0.377620,-1.217203,-1.246732,0.296895,0.217754,0.958454,-0.184254
1773140857.243100,-0.052576,0.279198,-0.312114,-1.208829,-1.554922,0.189346,0.217570,0.961631,-0.167118
1773140857.263398,-0.100264,0.240477,-0.183596,-1.212699,-1.737994,0.143828,0.215513,0.964753,-0.151013
1773140857.283442,-0.187750,0.229372,-0.067679,-1.340000,-1.865151,0.110794,0.213217,0.967741,-0.134225
1773140857.303572,-0.264482,0.140541,-0.007700,-1.812648,-1.807425,0.129447,0.211732,0.970940,-0.111562
1773140857.323858,-0.324690,0.082268,-0.076535,-2.121123,-1.938344,-0.012472,0.210097,0.974343,-0.080722
1773140857.343848,-0.386299,0.189668,0.101770,-2.451719,-1.907623,-0.166161,0.206566,0.977431,-0.044259
1773140857.363635,-0.408455,0.207593,0.189598,-2.919864,-1.667620,-0.358188,0.200722,0.979648,0.001091
1773140857.384776,-0.327660,0.141576,0.152585,-3.393491,-1.609882,-0.479019,0.193062,0.979533,0.056934
1773140857.404107,-0.306450,0.102939,0.089180,-3.396739,-1.780228,-0.498506,0.186745,0.975201,0.118783
1773140857.424650,-0.444501,0.158172,0.168446,-3.224591,-1.575319,-0.504338,0.182294,0.967241,0.176678
1773140857.444414,-0.539726,0.170297,0.085342,-2.739995,-1.214549,-0.632416,0.176857,0.957053,0.229721
1773140857.464473,-0.438733,0.126334,0.036959,-2.776907,-0.954587,-0.744739,0.169416,0.945703,0.277388
1773140857.484479,-0.322820,0.017457,0.036251,-2.963613,-1.005673,-0.820530,0.159841,0.930175,0.330494
1773140857.504369,-0.222628,0.080208,0.349405,-3.374013,-1.127322,-0.780765,0.153979,0.910561,0.383628
1773140857.524836,-0.404769,0.383740,0.147815,-2.909351,-0.566738,-0.998004,0.145309,0.886890,0.438535
1773140857.544865,-0.302233,0.219603,0.040028,-2.458006,-0.150598,-1.129831,0.129061,0.865068,0.484768
1773140857.564955,-0.065904,0.086980,0.082259,-2.344431,-0.012150,-1.189559,0.110292,0.843501,0.525682
1773140857.585032,-0.091048,0.082821,-0.075878,-2.170668,0.113821,-1.280805,0.088912,0.821232,0.563625
1773140857.605440,-0.162633,-0.041095,-0.187512,-2.174967,0.246480,-1.281462,0.065740,0.798312,0.598645
1773140857.625275,-0.152520,-0.103427,-0.282021,-2.095799,0.268006,-1.222025,0.042703,0.773120,0.632820
1773140857.645319,-0.170857,-0.070438,-0.554357,-2.093058,-0.043447,-1.207527,0.022313,0.746784,0.664693
1773140857.665582,-0.139662,-0.154791,-0.601143,-2.564589,-0.482347,-1.174592,0.008498,0.716116,0.697929
1773140857.685551,-0.073427,-0.287279,-0.730488,-3.101467,-0.996591,-1.010047,0.003252,0.675249,0.737583
1773140857.705829,-0.056572,-0.128592,-0.937630,-3.050376,-1.672327,-0.949340,0.011055,0.628119,0.778039
1773140857.726007,0.118103,-0.173490,-0.913909,-3.292861,-2.327245,-0.931860,0.031769,0.577986,0.815429
1773140857.745872,0.358622,-0.190607,-0.942900,-3.148181,-2.833740,-0.782318,0.065649,0.523981,0.849196
1773140857.765952,0.670206,-0.130757,-0.926914,-2.525551,-2.814994,-0.465395,0.108755,0.475712,0.872852
1773140857.786073,1.124387,-0.391005,-0.595908,-1.286668,-1.983953,0.287561,0.151309,0.441542,0.884391
1773140857.806182,1.266907,-0.465114,-0.254119,1.022546,-0.054364,1.082821,0.177368,0.434642,0.882965
1773140857.826403,1.890943,-0.393699,-1.104082,19.818371,-0.191689,2.602221,0.187457,0.532477,0.825426
1773140857.846352,1.496654,-2.231770,4.422011,-3.344543,1.568549,-0.147063,0.188099,0.570561,0.799424
1773140857.866452,1.375062,-0.217618,1.421038,-5.239721,2.273416,0.548238,0.165770,0.478849,0.862104
1773140857.886565,1.904429,1.341989,-0.166290,-2.652799,3.064694,1.533920,0.118093,0.386847,0.914551
1773140857.906864,2.018109,0.247150,0.415619,-0.214060,3.395317,1.766883,0.068424,0.364788,0.928573
1773140857.927037,2.052517,0.080640,0.500710,-0.373301,2.466210,2.459988,0.026661,0.363909,0.931053
1773140857.946886,1.534116,-0.091425,-0.168151,-0.724980,1.198142,2.761727,0.012256,0.349863,0.936721
1773140857.967111,0.937134,0.529812,-0.157233,0.248410,0.360716,3.188159,0.018295,0.344135,0.938742
1773140857.987215,0.964314,0.364521,-0.066627,0.753795,-0.624526,3.738755,0.044978,0.352703,0.934654
1773140858.007212,0.727218,0.478446,-0.011623,1.226840,-1.368182,4.413061,0.093247,0.364923,0.926357
1773140858.027564,0.261761,0.884389,-0.074590,2.796723,-1.848576,5.142674,0.159565,0.388194,0.907659
1773140858.047548,-0.104953,0.830311,-0.155602,3.249571,-1.609618,5.478669,0.235889,0.426113,0.873375
1773140858.067636,0.104621,0.414972,0.539067,0.712764,-1.067324,5.636306,0.306405,0.432623,0.847911
1773140858.087711,0.581075,0.779957,0.584938,-1.046612,-1.737445,5.421686,0.375361,0.387538,0.841973
1773140858.107826,0.369134,1.630697,0.584840,-0.567570,-2.404733,4.869859,0.448508,0.329309,0.830901
1773140858.127930,-0.166312,1.669106,0.408280,0.608815,-2.216849,3.679574,0.514884,0.288474,0.807266
1773140858.147915,-0.339199,0.906997,0.427440,0.095138,-1.215466,3.180837,0.561306,0.261963,0.785054
1773140858.168411,-0.178504,0.601053,0.336482,-1.146818,-0.982676,2.968404,0.591803,0.215185,0.776830
1773140858.188209,-0.089715,0.656407,0.129446,-0.385797,-1.260008,2.915083,0.621102,0.166179,0.765909
1773140858.208217,-0.321080,0.922329,-0.010572,1.398481,-0.808481,2.480505,0.645863,0.137806,0.750913
1773140858.231423,-0.327594,0.440981,-0.210525,2.938083,-0.254128,2.328894,0.659595,0.140181,0.738433
1773140858.248216,-0.089285,0.221857,0.007490,2.220079,-0.388613,2.187594,0.670294,0.149999,0.726778
1773140858.268282,-0.191133,0.453757,0.001308,1.495859,-0.657014,1.751570,0.684267,0.149178,0.713810
1773140858.288578,-0.377091,0.226756,0.177387,1.164945,-0.454463,1.305942,0.697205,0.147130,0.701611
1773140858.308692,-0.310189,0.037195,0.102476,1.205595,-0.463077,0.975477,0.706459,0.146979,0.692324
1773140858.328911,-0.214114,0.095119,0.040305,1.252575,-0.731626,0.720707,0.717349,0.151890,0.679956
1773140858.348976,-0.266650,0.201895,0.053076,1.082634,-0.743940,0.388009,0.729174,0.160029,0.665354
1773140858.369245,-0.236886,0.173449,0.094817,0.829796,-0.695963,0.086630,0.739510,0.168897,0.651612
1773140858.389098,-0.191353,0.124326,0.119362,0.629817,-0.781939,-0.104334,0.749016,0.178882,0.637947
1773140858.409269,-0.211483,0.171300,0.122679,0.499543,-0.777936,-0.191100,0.758495,0.187876,0.624010
1773140858.429487,-0.181305,0.264413,0.209782,0.211440,-0.738506,-0.217039,0.767106,0.195700,0.610942
1773140858.449608,-0.079277,0.377407,0.291640,0.016685,-0.634589,-0.235957,0.774665,0.200489,0.599748
1773140858.469463,-0.041756,0.450760,0.256803,-0.167944,-0.522145,-0.357279,0.780403,0.204208,0.590991
1773140858.489527,-0.025078,0.576253,0.322443,-0.432214,-0.343069,-0.630160,0.783744,0.208064,0.585196
1773140858.509637,-0.097906,0.733013,0.371526,-0.383521,0.039959,-1.051469,0.782004,0.216160,0.584590
1773140858.530021,-0.096439,0.717771,0.406827,-0.179614,0.437495,-1.413487,0.773685,0.231905,0.589603
1773140858.549987,-0.134449,0.775188,0.442763,-0.376378,0.935118,-1.919966,0.757481,0.254780,0.601091
1773140858.570179,-0.047142,0.742156,0.444470,-0.900610,1.422405,-2.443926,0.731086,0.279466,0.622424
1773140858.590306,0.111624,0.685555,0.553320,-1.305796,1.960995,-2.898816,0.693903,0.303672,0.652903
1773140858.610834,0.278354,0.732556,0.501144,-1.596887,2.486090,-3.319962,0.643872,0.325824,0.692292
1773140858.630663,0.437063,0.645116,0.526095,-1.857530,3.011027,-3.591891,0.581110,0.343836,0.737623
1773140858.650507,0.583181,0.593602,0.630671,-2.298190,3.636995,-3.841773,0.504054,0.352443,0.788488
1773140858.670583,0.783725,0.599545,0.470696,-2.345930,4.177077,-3.992414,0.411938,0.349918,0.841347
1773140858.690469,0.898077,0.528081,0.236134,-1.906779,4.525237,-3.957222,0.308191,0.340816,0.888180
1773140858.710786,0.925566,0.346656,-0.047636,-1.139499,4.590764,-3.846676,0.198366,0.332573,0.921980
1773140858.731033,0.869302,0.089390,-0.290624,-0.193727,4.421587,-3.521152,0.089042,0.330806,0.939489
1773140858.751009,0.873657,-0.047004,-0.425332,0.364242,3.954433,-3.254607,-0.013245,0.336051,0.941751
1773140858.771257,0.845346,-0.287810,-0.393272,0.805261,3.593714,-2.732157,-0.104700,0.343382,0.933342
1773140858.791343,0.977027,-0.590904,-0.314396,0.900484,3.402225,-1.739548,-0.185782,0.352913,0.917027
1773140858.811412,1.239068,-1.024996,-0.371444,1.193022,3.143182,-0.434175,-0.252709,0.366564,0.895416
1773140858.831666,1.276011,-1.188950,-0.387777,2.524158,3.299173,0.840492,-0.307642,0.398301,0.864126
1773140858.851669,1.251166,-1.102316,-0.344373,4.518317,3.573475,1.995331,-0.353080,0.468207,0.810011
1773140858.871742,1.163529,-1.276206,-0.110345,5.514585,3.911832,2.835320,-0.385392,0.565894,0.728860
1773140858.891853,1.070466,-1.250496,0.029561,4.760751,4.005797,3.302958,-0.401719,0.661263,0.633525
1773140858.911952,0.977696,-1.139897,-0.017322,4.131630,4.143673,3.693469,-0.399526,0.741643,0.538838
1773140858.932219,0.891161,-0.720708,-0.162737,4.344090,4.370657,3.953072,-0.381288,0.813069,0.439929
1773140858.952160,0.776783,-0.417718,-0.256933,4.912070,4.459844,4.014732,-0.347599,0.878091,0.328833
1773140858.972336,0.667046,-0.516155,-0.318442,4.846997,4.192351,3.826728,-0.299691,0.930676,0.209830
1773140858.992374,0.606808,-0.619804,-0.401522,2.821081,4.205232,3.605559,-0.241695,0.964072,0.110217
1773140859.012482,0.780413,-0.454625,-1.113289,0.888826,2.922361,3.359747,-0.179293,0.981862,0.061653
1773140859.032701,0.912246,0.201991,-2.056845,7.148878,-1.651787,2.128075,-0.126815,0.991887,-0.008844
1773140859.052714,1.035571,1.458391,-1.359119,7.542500,2.000689,4.738597,-0.056628,0.983153,-0.173794
1773140859.072644,0.003906,-0.880310,-1.539547,7.004507,2.618469,4.155108,0.044297,0.943970,-0.327046
1773140859.092764,0.478953,-1.229273,-0.888992,-1.920224,2.608337,3.208190,0.129811,0.922327,-0.363953
1773140859.112995,1.405782,0.087843,-2.188639,-3.822106,-2.303744,2.531512,0.185527,0.934634,-0.303380
1773140859.133786,1.196875,2.210136,-0.710303,2.277076,-0.861869,5.606913,0.251154,0.918603,-0.305109
1773140859.152813,-0.393979,0.932131,-2.143242,5.270951,-0.006796,3.502442,0.331968,0.868849,-0.367287
1773140859.172885,1.078447,0.349103,-1.952538,3.790820,-0.509544,4.394825,0.394408,0.799930,-0.452278
1773140859.193126,1.942025,0.663222,-1.961769,4.682379,-3.909692,4.206060,0.438636,0.720659,-0.536889
1773140859.213104,1.414384,0.967689,-1.899166,4.152633,-5.203679,3.747378,0.438017,0.634408,-0.636920
1773140859.233483,1.317669,-0.105322,-1.461817,3.123341,-4.998590,4.146385,0.414188,0.551443,-0.724126
1773140859.253395,1.866294,0.119428,-0.696517,-0.378822,-5.930801,4.406703,0.381646,0.496722,-0.779496
1773140859.273640,1.767615,0.554909,0.260802,-3.730409,-7.591818,3.046992,0.302499,0.500694,-0.811049
1773140859.293686,1.625698,0.997175,1.556093,-4.844698,-7.270988,0.332863,0.203373,0.559710,-0.803346
1773140859.313962,2.510043,3.994306,-0.223622,-5.183008,-5.508182,0.296200,0.116407,0.605319,-0.787425
1773140859.334249,1.033657,-1.132737,3.645622,2.569453,-2.095715,1.663478,0.070774,0.596390,-0.799568
1773140859.354164,1.481950,0.115950,2.471622,1.124827,-2.871997,1.529725,0.066405,0.573122,-0.816775
1773140859.374409,1.017082,-1.811166,2.674050,-0.080294,-0.076933,0.138377,0.035805,0.524453,-0.850686
1773140859.394184,1.424182,-0.821247,3.373356,-6.077432,-1.466456,-0.997864,0.034299,0.606357,-0.794452
1773140859.414399,0.960069,0.342013,2.646986,-6.687056,-1.819967,-0.515379,-0.006654,0.708265,-0.705915
1773140859.434632,-0.012491,0.838162,1.738304,-4.421896,0.168435,-0.507322,-0.024771,0.781482,-0.623436
1773140859.454604,-0.304347,0.433103,1.250487,-3.005130,1.004752,-0.989424,-0.029744,0.824313,-0.565352
1773140859.474721,0.025447,-0.147592,1.020592,-2.935602,1.243881,-0.292427,-0.027980,0.855081,-0.517738
1773140859.494624,-0.005007,-0.033115,0.761935,-3.143661,1.092755,0.320268,-0.016859,0.885623,-0.464098
1773140859.514926,-0.199046,0.377215,0.497039,-2.858818,1.367581,0.778281,0.005534,0.912122,-0.409881
1773140859.535277,-0.238652,0.696378,0.337187,-2.757778,1.484696,0.613638,0.029896,0.933932,-0.356199
1773140859.555116,-0.017786,0.529761,0.176499,-2.535757,1.133749,0.749907,0.051385,0.950967,-0.304993
1773140859.575214,-0.020651,0.350176,0.148835,-2.294384,0.879084,1.015938,0.073966,0.963637,-0.256775
1773140859.595314,-0.085564,0.412275,0.045488,-1.826919,0.977790,1.191689,0.100136,0.971545,-0.214647
1773140859.615417,-0.049631,0.461883,0.048001,-1.113202,1.083066,1.261333,0.128504,0.974365,-0.184659
1773140859.635648,0.029010,0.490560,-0.022335,-0.707488,1.004188,1.173527,0.155881,0.974055,-0.164066
1773140859.655609,0.178965,0.571512,-0.094691,-0.764453,0.630611,1.237967,0.182134,0.972113,-0.147726
1773140859.675841,0.158174,0.544885,-0.265635,-1.023299,0.081900,1.325633,0.208434,0.969581,-0.128331
1773140859.695945,0.038693,0.570182,-0.592989,-0.719084,-0.264881,1.088270,0.232135,0.966332,-0.110975
1773140859.716053,0.033644,0.707633,-0.693604,-0.319654,-0.545878,0.725869,0.248949,0.962976,-0.103454
1773140859.736371,0.021769,0.635161,-0.618642,-0.400155,-0.923371,0.474286,0.258825,0.960649,-0.100810
1773140859.756310,-0.096956,0.495531,-0.595596,-0.403070,-1.284571,0.297204,0.264223,0.959547,-0.097245
1773140859.776529,-0.204322,0.631176,-0.728087,0.221609,-1.489683,0.043928,0.265968,0.958500,-0.102663
1773140859.796872,-0.281982,0.786619,-0.784901,1.085878,-1.455095,-0.455551,0.259048,0.958040,-0.122691
1773140859.816168,-0.133603,0.730388,-0.745824,2.115053,-1.785299,-0.873372,0.241406,0.956807,-0.161997
1773140859.836581,0.077702,0.739303,-0.710850,2.333641,-2.231277,-1.129663,0.214214,0.952881,-0.214779
1773140859.856662,0.169676,0.564218,-0.642662,1.931331,-2.473114,-1.133044,0.180834,0.946860,-0.265999
1773140859.876776,0.221312,0.366073,-0.454412,1.153887,-2.782266,-0.926959,0.145906,0.941483,-0.303843
1773140859.896966,0.098366,0.386817,-0.291636,0.655828,-2.852798,-0.822254,0.112053,0.938027,-0.327947
1773140859.917081,-0.092114,0.472114,-0.318753,0.800414,-2.661323,-1.028875,0.075985,0.935464,-0.345157
1773140859.937202,-0.204570,0.487340,-0.254254,1.343980,-2.440665,-1.324123,0.035930,0.928890,-0.368610
1773140859.957151,-0.247527,0.485824,-0.204791,1.476804,-2.423683,-1.638537,-0.010514,0.918259,-0.395841
1773140859.977419,-0.202444,0.343556,-0.240197,1.515430,-2.257515,-1.811874,-0.061502,0.904384,-0.422264
1773140859.997481,-0.053308,0.112989,-0.062952,0.846270,-2.288551,-1.849583,-0.114447,0.890520,-0.440313
1773140860.017479,0.019075,-0.173921,0.101288,-0.553460,-2.394488,-1.750800,-0.166978,0.882845,-0.438981
1773140860.037743,0.049925,-0.506056,0.066553,-2.526165,-2.516793,-1.407278,-0.216719,0.889891,-0.401407
1773140860.057604,0.099956,-0.587216,0.089253,-4.557335,-2.523730,-1.124431,-0.258037,0.909939,-0.324696
1773140860.077588,0.182107,-0.358297,0.132536,-5.866613,-2.455985,-1.004241,-0.290978,0.932607,-0.213484
1773140860.097966,0.169789,-0.293630,0.001336,-5.885125,-2.294299,-1.083851,-0.317769,0.944280,-0.085778
1773140860.118011,0.136546,-0.325707,-0.087817,-4.974793,-1.998814,-1.173761,-0.340480,0.939659,0.033374
1773140860.138196,0.155186,-0.170430,-0.247453,-3.440387,-1.497343,-1.201116,-0.359928,0.924550,0.125138
1773140860.158476,0.302041,-0.147881,-0.233823,-2.201110,-1.278206,-1.175401,-0.377664,0.907265,0.185041
1773140860.178164,0.394223,-0.321855,-0.055994,-2.297718,-1.304252,-1.037726,-0.392315,0.889528,0.234156
1773140860.198101,0.379322,-0.475011,0.017304,-2.856772,-1.163635,-0.908667,-0.402713,0.868413,0.289275
1773140860.218383,0.402333,-0.415444,-0.068701,-3.124325,-1.036490,-0.882316,-0.411061,0.841774,0.349921
1773140860.238957,0.484151,-0.269748,-0.130197,-3.174589,-1.034945,-0.879493,-0.417974,0.810138,0.411066
1773140860.258734,0.465111,-0.288740,-0.198884,-3.319552,-0.974141,-0.803102,-0.422569,0.774153,0.471300
1773140860.278844,0.466890,-0.404939,-0.279027,-3.689367,-1.029320,-0.576903,-0.423158,0.733003,0.532583
1773140860.298932,0.458906,-0.462506,-0.385108,-3.886997,-1.239282,-0.242168,-0.416135,0.686093,0.596748
1773140860.319022,0.502204,-0.326103,-0.416950,-3.777361,-1.397195,0.038868,-0.400733,0.636894,0.658619
1773140860.339265,0.643654,-0.391121,-0.707421,-3.398218,-1.848681,0.461824,-0.375405,0.588890,0.715738
1773140860.359223,0.862565,-0.328545,-0.688168,-2.642674,-1.938538,0.875401,-0.338609,0.548242,0.764706
1773140860.379311,1.273142,-0.504091,-0.434204,-1.906793,-1.222019,1.460779,-0.300639,0.519030,0.800140
1773140860.399356,1.584991,-0.509362,-0.080360,-0.799632,0.282200,1.932637,-0.273803,0.507104,0.817238
1773140860.419686,0.469324,-1.989577,3.563037,-7.868227,2.946173,3.625718,-0.260477,0.458297,0.849774
1773140860.439922,1.718712,0.704923,-0.308089,8.062023,-0.021925,1.474222,-0.249870,0.488437,0.836059
1773140860.459832,0.389808,1.491402,2.210245,0.037835,3.647737,1.676605,-0.273032,0.534858,0.799613
1773140860.479824,1.493674,-2.327240,-0.297890,-1.517716,1.942320,1.907259,-0.288642,0.546814,0.785927
1773140860.500026,0.957844,0.602730,-0.314957,0.301782,0.100735,2.378228,-0.277897,0.546211,0.790207
1773140860.520049,0.074202,0.034494,-0.065222,1.209563,0.066560,2.962188,-0.250518,0.573523,0.779944
1773140860.540237,0.252722,-0.226701,-0.195682,1.603190,-0.597659,3.651052,-0.206747,0.612306,0.763111
1773140860.560263,0.255459,-0.017921,-0.043663,1.070361,-1.154328,4.246732,-0.142940,0.647178,0.748818
1773140860.580439,0.288574,-0.192057,0.105419,-0.425787,-1.772846,4.795256,-0.060974,0.663691,0.745518
1773140860.600795,0.340766,0.178848,0.182628,-1.202368,-2.219369,5.181423,0.035439,0.649476,0.759556
1773140860.620707,0.277358,0.809325,0.088435,0.600048,-2.307414,5.418925,0.139345,0.633089,0.761434
1773140860.640879,0.198210,1.087913,0.206856,2.329082,-1.923613,5.500108,0.241381,0.635369,0.733513
1773140860.660894,0.181618,0.953749,0.484344,2.506153,-1.293357,5.493446,0.335228,0.640214,0.691193
1773140860.680946,0.206617,0.627593,0.669774,1.293508,-0.490821,5.545562,0.417971,0.624422,0.659847
1773140860.700993,0.304072,0.904538,0.617185,0.566564,0.072848,5.411645,0.487142,0.584842,0.648577
1773140860.721440,0.268468,1.178751,0.415700,1.223099,0.334593,4.780587,0.542689,0.543279,0.640575
1773140860.741450,0.142744,1.031510,0.253705,2.357608,0.785892,4.302588,0.583711,0.514037,0.628527
1773140860.761557,0.013058,0.704642,0.159905,3.010719,1.474907,3.885627,0.612048,0.499535,0.613075
1773140860.782059,-0.018253,0.366368,-0.107702,3.110268,1.821409,3.510693,0.628268,0.490001,0.604299
1773140860.801609,0.079112,0.149960,-0.160967,3.501110,1.876362,3.414435,0.639715,0.485583,0.595797
1773140860.821455,0.033451,0.475704,-0.128281,4.054967,1.907019,3.234976,0.650235,0.486271,0.583726
1773140860.841965,-0.162438,0.583278,-0.142595,4.693779,1.898207,2.529492,0.657067,0.499775,0.564348
1773140860.861906,-0.152464,0.326760,-0.039805,4.274559,1.968484,2.043365,0.658613,0.520439,0.543482
1773140860.882132,-0.026787,0.081272,-0.080823,3.159913,1.769937,1.810295,0.658531,0.535641,0.528607
1773140860.902103,0.041184,0.073381,-0.178168,2.623963,1.169076,1.410385,0.660980,0.542052,0.518928
1773140860.922159,0.026820,0.356995,-0.258049,2.018034,1.238603,1.591521,0.664785,0.549789,0.505761
1773140860.942330,0.081481,0.444772,-0.164464,0.837838,0.612460,1.219469,0.670319,0.544913,0.503728
1773140860.962072,-0.005140,0.172315,0.000870,0.524299,-0.634357,0.310468,0.679151,0.539507,0.497680
1773140860.982216,-0.264792,0.065667,0.093004,-0.181167,-0.734302,-0.490469,0.685095,0.544654,0.483733
1773140861.002296,-0.457940,-0.215605,0.090523,-2.031552,-0.916514,-0.676634,0.687386,0.542418,0.482994
1773140861.022605,-0.234491,-0.074628,0.019704,-2.488303,-0.613944,-0.524042,0.687341,0.527005,0.499828
1773140861.042863,-0.001608,0.269426,0.001713,-2.233224,-1.228676,-0.701821,0.690954,0.511015,0.511318
1773140861.062866,-0.092462,0.231945,0.153760,-2.318826,-1.268173,-0.956206,0.695902,0.498982,0.516467
1773140861.082797,-0.109661,0.180798,0.182084,-2.377634,-0.908382,-1.056353,0.697246,0.488498,0.524612
1773140861.103075,0.041799,0.294650,0.237881,-2.508708,-0.713168,-1.202376,0.694956,0.478116,0.537067
1773140861.123079,0.108818,0.455908,0.302955,-2.469677,-0.374242,-1.350964,0.688865,0.468347,0.553277
1773140861.143178,0.138865,0.550306,0.299688,-2.073318,0.158385,-1.392802,0.677434,0.461489,0.572810
1773140861.163149,0.185754,0.627378,0.221979,-1.384250,0.545408,-1.473271,0.659873,0.459887,0.594198
1773140861.183435,0.189699,0.657761,0.283523,-1.135864,0.913350,-1.678237,0.636366,0.465362,0.615204
1773140861.203430,0.186024,0.613510,0.316970,-0.967619,1.199534,-1.929788,0.606152,0.474823,0.638063
1773140861.223718,0.187676,0.600746,0.412904,-1.154482,1.533016,-2.323061,0.567939,0.486321,0.664032
1773140861.244029,0.249900,0.574663,0.384379,-1.462399,1.976995,-2.647368,0.519342,0.495695,0.696111
1773140861.263694,0.357878,0.521249,0.299839,-1.545789,2.412431,-2.815187,0.460329,0.500922,0.732922
1773140861.284039,0.402030,0.509053,0.228042,-1.669556,2.843487,-3.018473,0.391244,0.501689,0.771516
1773140861.303889,0.482897,0.415251,0.201358,-1.815022,3.193223,-3.195930,0.311704,0.495592,0.810697
1773140861.324345,0.546451,0.329605,0.096199,-1.569227,3.423646,-3.295840,0.224438,0.483857,0.845878
1773140861.344488,0.609875,0.243405,-0.169394,-1.002146,3.501292,-3.299608,0.132481,0.473713,0.870658
1773140861.364675,0.670586,0.150797,-0.350332,-0.765486,3.413402,-3.200587,0.040641,0.464483,0.884649
1773140861.384586,0.679103,-0.036656,-0.471715,-0.679600,3.094055,-3.016269,-0.046687,0.450399,0.891606
1773140861.404572,0.689871,-0.183409,-0.456607,-0.334686,2.752732,-2.746800,-0.124395,0.436018,0.891299
1773140861.424587,0.686937,-0.253954,-0.523228,0.166371,2.415347,-2.392855,-0.192980,0.427111,0.883366
1773140861.444874,0.776243,-0.531125,-0.587404,0.386544,2.050291,-1.635300,-0.249617,0.422726,0.871202
1773140861.464795,0.880820,-0.733975,-0.548386,1.171363,1.944114,-0.498246,-0.293234,0.429029,0.854371
1773140861.484764,0.944893,-0.854205,-0.462428,2.976085,2.128453,0.754122,-0.326088,0.463184,0.824092
1773140861.505134,0.944759,-0.885428,-0.314623,5.394615,2.508477,2.008089,-0.349040,0.539405,0.766299
1773140861.525268,0.881894,-1.093415,-0.136688,6.636004,2.993280,3.016209,-0.358380,0.646714,0.673294
1773140861.545733,0.840961,-1.156004,0.208133,6.048289,3.476445,3.643965,-0.350940,0.751112,0.559171
1773140861.565415,0.848728,-1.040813,0.196992,5.126522,3.883395,4.035480,-0.326191,0.834300,0.444458
1773140861.585616,0.853146,-0.511992,0.114903,4.308258,4.384999,4.240732,-0.285748,0.896865,0.337612
1773140861.605698,0.766523,-0.107566,-0.041746,4.163360,4.079025,3.886946,-0.234724,0.942725,0.237012
1773140861.625829,0.728646,-0.083699,-0.349080,2.063948,3.583955,3.877022,-0.177468,0.971089,0.159658
1773140861.646043,0.566568,-0.609438,-1.127697,1.442469,2.548768,3.472532,-0.109246,0.987871,0.110348
1773140861.666038,0.507207,0.421204,-2.044898,4.816727,0.609888,2.916356,-0.050298,0.997192,0.055488
1773140861.685970,0.352986,1.593340,-1.778749,8.312932,1.491534,4.110903,0.025310,0.995680,-0.089339
1773140861.705925,-0.157613,0.032782,-2.115256,11.702824,2.416079,4.283228,0.111638,0.955195,-0.274117
1773140861.726166,0.173076,-0.633859,-2.592605,3.584272,2.882641,4.879175,0.214040,0.883233,-0.417236
1773140861.746396,1.299794,-1.586102,-1.298536,-1.811225,1.543356,5.173636,0.321544,0.845257,-0.426791
1773140861.766435,2.261569,0.666234,-0.998221,0.937778,-1.195889,3.882873,0.396802,0.818065,-0.416315
1773140861.786493,3.758630,2.962172,-1.273715,6.540060,-2.936733,5.378999,0.458609,0.734743,-0.499830
1773140861.806511,3.137951,-1.262843,-1.497868,-0.073965,-6.155952,4.127412,0.479587,0.642359,-0.597805
1773140861.826646,3.052181,-1.039381,-0.455686,-4.634783,-8.241517,1.855453,0.423664,0.654356,-0.626360
1773140861.847098,2.538411,2.075940,0.833690,-2.611191,-9.482548,2.024500,0.337138,0.691088,-0.639324
1773140861.867116,0.914510,2.495029,2.814834,-5.227062,-9.425135,3.546809,0.229137,0.702389,-0.673904
1773140861.886797,-0.987895,-0.671049,1.987759,5.010285,-8.250210,2.796191,0.145198,0.693007,-0.706158
1773140861.906854,-1.340594,2.022732,3.553450,0.517944,-3.247162,1.916925,0.124621,0.678028,-0.724394
1773140861.927306,0.754090,-1.295297,3.092639,0.791702,-1.315221,1.481205,0.111831,0.655389,-0.746966
1773140861.947594,1.316908,0.321013,2.756056,-2.670308,-2.796196,0.184206,0.087739,0.683748,-0.724425
1773140861.967510,0.473006,0.632972,2.313343,-2.397922,-2.361227,0.099954,0.051393,0.719445,-0.692645
1773140861.987442,-0.516285,0.007287,2.095321,-1.996237,-1.132973,0.035414,0.027164,0.747794,-0.663375
1773140862.007883,-0.736502,0.287322,2.069860,-2.229658,0.215220,0.421103,0.027106,0.778077,-0.627584
1773140862.027918,-0.447883,0.125002,1.407020,-1.647801,0.714442,0.420015,0.039558,0.800566,-0.597937
1773140862.048128,-0.109100,-0.259299,1.042981,-2.294692,0.762792,0.649672,0.057357,0.822288,-0.566174
1773140862.068064,-0.046805,-0.008171,0.550847,-2.448782,0.923239,0.664478,0.078085,0.848579,-0.523274
1773140862.088181,0.001246,0.248366,0.295726,-2.211903,0.941825,0.618602,0.098455,0.870974,-0.481364
1773140862.108341,-0.036373,0.201545,0.209594,-2.103466,0.973341,0.711504,0.118938,0.889413,-0.441360
1773140862.128400,-0.101765,0.099142,0.099165,-1.922612,1.156740,0.850429,0.142017,0.904292,-0.402601
1773140862.148648,-0.016647,0.240305,0.042657,-1.832764,0.987159,0.900543,0.166778,0.916434,-0.363778
1773140862.168566,0.043804,0.552131,-0.011050,-1.369391,0.916696,0.918608,0.190465,0.924294,-0.330762
1773140862.188832,0.035329,0.586789,0.021365,-1.297293,0.873040,0.710856,0.211726,0.929294,-0.302630
1773140862.208788,0.057253,0.524996,-0.026013,-1.206862,0.687279,0.544241,0.227843,0.934004,-0.275181
1773140862.228949,-0.013431,0.390315,-0.052853,-1.103783,0.527012,0.476004,0.240909,0.937535,-0.250979
1773140862.249036,-0.080925,0.370657,-0.167259,-1.353511,0.389164,0.424191,0.251640,0.941095,-0.225869
1773140862.268850,-0.040309,0.400018,-0.339902,-1.582054,0.180154,0.321783,0.260035,0.945380,-0.196566
1773140862.289021,0.009247,0.325138,-0.392161,-2.048914,-0.221886,0.343201,0.266296,0.950069,-0.162648
1773140862.309201,-0.058152,0.145964,-0.274342,-3.097255,-0.688145,0.385156,0.272172,0.955232,-0.115993
1773140862.329336,-0.089954,0.040679,-0.164829,-4.015265,-1.080285,0.399660,0.278552,0.958985,-0.052501
1773140862.349565,-0.043949,0.183568,-0.209030,-4.690448,-1.463357,0.226829,0.284748,0.958262,0.025543
1773140862.369425,0.008551,0.384716,-0.271728,-4.267249,-1.589404,-0.007297,0.289880,0.951344,0.104476
1773140862.389572,-0.008102,0.415246,-0.204654,-3.224244,-1.508468,-0.567708,0.289336,0.942481,0.167377
1773140862.409742,0.123847,0.211093,-0.108333,-1.823865,-1.020913,-0.852211,0.280389,0.937238,0.207287
1773140862.429959,0.345989,0.000974,-0.012217,-0.791127,-0.506648,-0.960696,0.266408,0.936664,0.227351
1773140862.450288,0.639085,-0.158066,-0.038704,0.019455,-0.267097,-0.830933,0.251205,0.939560,0.232644
1773140862.470177,0.869988,-0.277922,0.157753,0.206873,-0.563135,-0.814343,0.237495,0.944380,0.227471
1773140862.490189,1.003632,-0.455154,0.300514,-0.033909,-0.686940,-0.675511,0.226119,0.948410,0.222237
1773140862.509987,1.108724,-0.613867,0.405515,-0.623419,-0.812786,-0.459836,0.218532,0.949545,0.224963
1773140862.530542,1.133774,-0.641653,0.325806,-1.158052,-1.171233,-0.124757,0.217468,0.946509,0.238388
1773140862.550723,0.968937,-0.531351,0.146803,-1.189186,-1.334470,0.291625,0.225720,0.940042,0.255678
1773140862.570692,0.751917,-0.427171,0.049125,-0.784352,-1.213112,0.705081,0.242879,0.932131,0.268593
1773140862.590797,0.614585,-0.424417,-0.045357,-0.244259,-1.067886,1.054632,0.266473,0.924601,0.272225
1773140862.610752,0.550802,-0.371568,-0.148469,0.161349,-1.053551,1.316169,0.294581,0.917680,0.266618
1773140862.630868,0.531450,-0.304478,-0.192960,0.393321,-1.308269,1.586553,0.327467,0.909947,0.254484
1773140862.651087,0.468860,-0.322951,-0.179315,0.110857,-1.699616,1.795807,0.365826,0.899657,0.238305
1773140862.671071,0.367758,-0.363551,-0.201609,-0.343372,-2.072637,2.075046,0.409357,0.884013,0.225718
1773140862.691319,0.251684,-0.301739,-0.216230,-0.694783,-2.232341,2.412365,0.458369,0.861965,0.216596
1773140862.711298,0.205511,-0.191997,-0.232698,-0.655805,-2.331996,2.834568,0.512751,0.833522,0.205736
1773140862.731392,0.217477,-0.122181,-0.231146,-0.418256,-2.450391,3.342206,0.572868,0.797596,0.188849
1773140862.752242,0.236513,-0.045942,-0.149501,-0.192605,-2.446165,3.853006,0.637815,0.752653,0.163418
1773140862.771929,0.273496,0.062829,-0.058302,-0.251359,-2.328841,4.296343,0.704562,0.696815,0.134321
1773140862.791433,0.340137,0.182898,-0.025742,-0.332942,-2.201316,4.606791,0.769757,0.629678,0.104782
1773140862.811694,0.411937,0.373828,-0.029771,-0.223504,-2.145182,4.676976,0.829213,0.554059,0.073656
1773140862.831782,0.442129,0.545648,-0.071605,0.257270,-2.124179,4.500503,0.879618,0.474280,0.036479
1773140862.851871,0.323499,0.650364,-0.057086,0.528197,-2.145376,3.791693,0.917331,0.398068,-0.006864
1773140862.872033,0.116129,0.651361,0.097185,-0.284049,-2.010402,2.801070,0.940191,0.337546,-0.045870
1773140862.892244,0.027110,0.768553,0.146828,-0.411990,-1.585685,2.120208,0.953420,0.291627,-0.077096
1773140862.912223,-0.104641,0.605436,0.147757,-0.058074,-1.142921,1.592293,0.961162,0.255740,-0.103751
1773140862.932546,-0.271360,0.412399,0.332302,-0.763678,-0.264387,1.035725,0.965970,0.231232,-0.115902
1773140862.952742,-0.213660,0.435112,0.139698,-1.416226,0.043094,0.333893,0.968970,0.220695,-0.111317
1773140862.972721,-0.121119,0.601566,0.186148,-1.107308,0.019863,-0.107966,0.969492,0.221355,-0.105292
1773140862.992803,-0.255057,0.503003,0.213131,-0.808945,0.309810,-0.456510,0.968391,0.229098,-0.098659
1773140863.012811,-0.290191,0.489520,0.244131,-0.596816,0.732171,-0.668117,0.966735,0.241345,-0.084707
1773140863.032921,-0.267062,0.507191,0.156925,-0.189506,1.002725,-0.873165,0.964175,0.256924,-0.066013
1773140863.053174,-0.243300,0.390174,0.111422,-0.135725,1.238108,-1.030976,0.960326,0.275460,-0.043536
1773140863.073300,-0.225724,0.278427,0.123820,-0.291909,1.293300,-1.153761,0.954804,0.296692,-0.017970
1773140863.093363,-0.238619,0.245681,0.087427,-0.270410,1.520249,-1.218160,0.947573,0.319367,0.010459
1773140863.113477,-0.223805,0.237933,0.035585,0.171341,1.803671,-1.193733,0.938679,0.342176,0.042387
1773140863.134173,-0.184595,0.217815,-0.000830,0.696833,2.002827,-1.153435,0.928140,0.364643,0.074774
1773140863.153673,-0.116082,0.167466,-0.022748,1.200514,2.140516,-1.048894,0.916253,0.386398,0.105726
1773140863.173754,-0.034018,0.124962,0.012466,1.575349,2.216421,-0.926074,0.903265,0.407616,0.134018
1773140863.194063,0.084062,0.057850,0.068201,1.620738,2.115095,-0.766573,0.890044,0.427196,0.159139
1773140863.213944,0.177248,0.043031,0.174714,1.382866,1.813873,-0.718485,0.876936,0.445434,0.180480
1773140863.234008,0.227717,0.066962,0.265480,1.095939,1.655859,-0.706163,0.864080,0.462198,0.199348
1773140863.254191,0.220779,0.117126,0.346214,0.727118,1.713156,-0.852966,0.849732,0.479325,0.219552
1773140863.273933,0.255835,0.146014,0.339573,0.564658,1.937384,-1.036412,0.832116,0.497953,0.244183
1773140863.294263,0.268424,0.208770,0.392362,0.401949,2.100573,-1.393039,0.809289,0.520646,0.271991
1773140863.314350,0.293804,0.223105,0.427630,0.022926,2.371418,-1.695789,0.779637,0.546731,0.305371
1773140863.334463,0.340855,0.199149,0.511948,-0.371358,2.516501,-1.896160,0.743358,0.573038,0.345031
1773140863.354827,0.349037,0.222577,0.551219,-0.804302,2.588949,-1.973938,0.701546,0.596820,0.389409
1773140863.374645,0.228897,0.184884,0.550354,-1.224167,2.624222,-2.130185,0.655136,0.616553,0.436645
1773140863.394905,0.105188,0.146295,0.419495,-1.559385,2.881832,-2.173516,0.602484,0.630362,0.489548
1773140863.414868,0.002880,0.171504,0.352025,-1.736669,3.152898,-2.166781,0.543232,0.638356,0.545344
1773140863.434986,-0.049672,0.133525,0.202792,-1.634033,3.401239,-2.043688,0.477941,0.640492,0.601118
1773140863.455212,-0.098205,0.033031,0.139434,-1.678835,3.318517,-1.941452,0.409912,0.637806,0.652055
1773140863.475172,-0.159632,-0.015173,0.052046,-2.036603,3.344866,-1.823629,0.340662,0.626684,0.700869
1773140863.495304,-0.177177,0.003921,-0.116224,-2.130327,3.236152,-1.679217,0.270820,0.607117,0.747038
1773140863.515506,-0.157605,0.072959,-0.046123,-1.978553,3.140017,-1.535144,0.202435,0.582756,0.787029
1773140863.535649,-0.063138,0.142329,0.139730,-2.199892,3.259929,-1.431552,0.134107,0.554082,0.821589
1773140863.555878,0.145376,0.117249,0.092375,-2.310946,3.027991,-1.307446,0.066157,0.519759,0.851747
1773140863.575718,0.197921,0.114356,0.149183,-2.439293,2.914992,-1.230040,0.001939,0.478753,0.877947
1773140863.595905,0.238974,0.221046,0.215289,-2.324550,3.000117,-1.056483,-0.061667,0.435448,0.898100
1773140863.615915,0.475710,0.176140,0.401667,-2.310874,3.210454,-0.869589,-0.125643,0.391914,0.911382
1773140863.636022,0.690264,0.279339,0.198152,-1.398831,3.370827,-0.680188,-0.191439,0.354298,0.915328
1773140863.656600,0.705667,0.370746,0.284198,-0.350497,3.670270,-0.591202,-0.260187,0.336209,0.905133
1773140863.676311,0.722962,0.281580,0.080674,0.121516,3.711116,-0.583012,-0.330964,0.331015,0.883681
1773140863.696158,0.743240,0.170915,0.179432,-1.056501,3.217757,-1.000005,-0.398482,0.324278,0.857937
1773140863.716181,1.102766,0.439009,-0.927567,1.052576,2.590942,-0.094442,-0.450773,0.308672,0.837571
1773140863.736389,1.108509,-0.485089,-0.485994,2.630925,2.111398,-0.302424,-0.488407,0.354428,0.797396
1773140863.756727,1.074740,-0.280355,-0.300034,1.005199,2.219812,-0.019700,-0.522112,0.370931,0.767990
1773140863.776716,0.967773,0.258263,0.044096,-0.143396,1.495169,0.099244,-0.550949,0.372642,0.746722
1773140863.796746,0.799509,-0.194465,-0.758652,0.221059,1.110195,-0.112050,-0.570993,0.371986,0.731842
1773140863.816743,0.773867,0.174190,-0.643462,1.372334,0.510076,-0.101473,-0.583513,0.382786,0.716232
1773140863.837014,0.737980,-0.203495,-0.584554,2.311612,-0.074187,0.246681,-0.585941,0.410129,0.698904
1773140863.857214,0.665235,-0.279550,-0.621103,3.048973,-0.678884,0.544785,-0.577223,0.452234,0.679925
1773140863.877176,0.625575,-0.325562,-0.571547,3.077787,-1.397136,0.794037,-0.557109,0.501221,0.662124
1773140863.897162,0.589095,-0.643563,-0.463702,2.359864,-2.154780,1.187829,-0.523208,0.548486,0.652240
1773140863.917453,0.543099,-0.708773,-0.432720,1.589802,-2.890026,1.540551,-0.474358,0.588274,0.654919
1773140863.937677,0.484944,-0.611134,-0.445687,1.309143,-3.498647,1.947551,-0.410435,0.621815,0.667000
1773140863.957953,0.463217,-0.499230,-0.391554,1.441962,-4.060749,2.278649,-0.332250,0.655648,0.678038
1773140863.977888,0.447794,-0.308826,-0.274828,2.168597,-4.668515,2.506214,-0.239939,0.693042,0.679796
1773140863.997971,0.425704,-0.149907,-0.180198,3.637763,-4.962338,2.912356,-0.136001,0.742086,0.656364
1773140864.017918,0.418892,-0.161643,0.152230,4.453118,-4.810094,3.534799,-0.023674,0.799858,0.599723
1773140864.038078,0.473201,-0.243176,0.561852,3.526847,-4.389917,4.090821,0.092122,0.844143,0.528144
1773140864.058245,0.630383,-0.192452,0.590125,1.574187,-4.264912,4.382538,0.208225,0.857171,0.471063
1773140864.078215,0.836994,-0.186155,0.464804,-0.454494,-4.674174,4.194270,0.322262,0.839460,0.437555
1773140864.098411,1.005849,-0.084773,0.553637,-2.202965,-5.369077,3.658829,0.430888,0.798076,0.421202
1773140864.118547,1.129194,0.144569,0.804360,-3.570308,-5.963490,3.109586,0.530688,0.740654,0.412071
1773140864.138370,1.163390,0.267803,0.974382,-4.247402,-6.617259,2.524347,0.622163,0.676014,0.394866
1773140864.161616,1.058939,0.237231,1.144621,-4.961452,-6.789212,1.971056,0.702948,0.611066,0.363954
1773140864.179043,1.054617,0.124176,1.254510,-5.678521,-6.650491,1.519152,0.769952,0.548127,0.326697
1773140864.199020,1.104456,-0.002357,1.294847,-6.038383,-6.759464,1.150921,0.825293,0.490409,0.279983
1773140864.219014,0.834918,-0.073017,1.267916,-6.425527,-6.496933,0.633688,0.867749,0.443454,0.224409
1773140864.239112,0.475018,-0.012410,1.087844,-5.887100,-5.740177,0.330378,0.896075,0.410420,0.169129
1773140864.259342,0.218297,0.022733,0.803524,-4.469819,-4.650198,0.257091,0.913218,0.390505,0.116352
1773140864.279155,0.050204,-0.046277,0.648840,-2.713887,-3.379616,0.367931,0.923093,0.378187,0.069819
1773140864.299413,0.011463,-0.091338,0.661945,-1.888229,-2.552591,0.382621,0.929134,0.368361,0.031933
1773140864.319546,0.010460,-0.152778,0.659196,-1.577756,-2.262383,0.392814,0.932731,0.360572,-0.000108
1773140864.339623,-0.023716,-0.204494,0.736018,-1.994884,-2.063603,0.412447,0.935001,0.353541,-0.027949
1773140864.359744,-0.046222,-0.189273,0.729449,-2.764379,-2.003739,0.287759,0.935886,0.348849,-0.049212
1773140864.379842,-0.093163,-0.086014,0.626342,-3.040107,-1.894386,0.149014,0.935189,0.348053,-0.065429
1773140864.399938,-0.185688,-0.079027,0.557971,-3.133533,-1.691587,0.086562,0.933399,0.350313,-0.077762
1773140864.419768,-0.256771,-0.080098,0.538387,-3.257550,-1.447148,0.048453,0.931302,0.354283,-0.084621
1773140864.440053,-0.295287,-0.012408,0.511562,-3.169045,-1.071803,0.039697,0.929366,0.359225,-0.085063
1773140864.462027,-0.255673,-0.018599,0.441174,-2.893856,-0.857550,0.109617,0.928342,0.362822,-0.080884
1773140864.480381,-0.210400,-0.043777,0.391534,-2.718607,-0.862069,0.193391,0.928051,0.364563,-0.076257
1773140864.500622,-0.235894,0.016786,0.387350,-2.624774,-0.788505,0.272257,0.928551,0.364104,-0.072256
1773140864.520475,-0.250733,0.037764,0.377424,-2.512124,-0.650717,0.363779,0.929810,0.361879,-0.067060
1773140864.540558,-0.216286,0.052039,0.337100,-2.338509,-0.579069,0.513632,0.932106,0.357003,-0.061053
1773140864.561922,-0.171155,0.090623,0.329430,-2.231146,-0.563440,0.625386,0.935407,0.349105,-0.056038
1773140864.580978,-0.139475,0.126993,0.342593,-2.150375,-0.595400,0.762998,0.939524,0.338461,-0.052340
1773140864.600709,-0.150268,0.213402,0.367718,-2.144576,-0.588607,0.891412,0.944397,0.325050,-0.049573
1773140864.620820,-0.169243,0.304073,0.380049,-2.128573,-0.564475,0.987894,0.949822,0.309254,-0.046904
1773140864.641020,-0.216108,0.400371,0.349610,-1.819927,-0.553516,1.067868,0.955503,0.291416,-0.045716
1773140864.661396,-0.319726,0.479966,0.334284,-1.571496,-0.427875,1.058668,0.961129,0.272292,-0.045694
1773140864.681462,-0.391167,0.572531,0.414126,-1.565097,-0.208599,0.898507,0.966042,0.254602,-0.044055
1773140864.701677,-0.409945,0.612896,0.489108,-1.599994,0.178946,0.725387,0.970004,0.240299,-0.036731
1773140864.721556,-0.303117,0.622038,0.616414,-1.766686,0.477622,0.551286,0.973253,0.228701,-0.021810
1773140864.741695,-0.190027,0.721308,0.705324,-1.613078,0.782231,0.412713,0.975564,0.219701,-0.002366
1773140864.762204,-0.164629,0.852201,0.758245,-1.257626,1.462067,0.129656,0.976504,0.213991,0.025462
1773140864.781938,-0.003897,0.862474,0.751122,-0.788460,2.116550,-0.214583,0.974646,0.213927,0.065574
1773140864.801982,0.172783,0.785985,0.806469,-0.676120,2.500934,-0.531276,0.968803,0.220103,0.113910
1773140864.822166,0.241452,0.716940,0.853357,-0.872579,3.007667,-0.869010,0.957782,0.231623,0.170309
1773140864.842292,0.294118,0.712767,0.841498,-0.938848,3.605399,-1.171670,0.939112,0.247911,0.237924
1773140864.862276,0.369403,0.758145,0.750185,-0.604033,4.281758,-1.394346,0.910474,0.267566,0.315351
1773140864.882504,0.537564,0.768089,0.702447,-0.165773,4.857941,-1.695542,0.868793,0.292473,0.399573
1773140864.902647,0.746516,0.721040,0.668251,0.071546,5.233196,-1.958962,0.812383,0.323408,0.485222
1773140864.924889,0.895546,0.646594,0.555361,0.028917,5.515917,-2.162158,0.741143,0.356519,0.568861
1773140864.942734,0.964566,0.546987,0.375810,0.103522,5.793012,-2.271962,0.655215,0.388072,0.648146
