timestamp,ax,ay,az,gx,gy,gz,grx,gry,grz
1773765939.470816,0.043493,0.177917,0.113206,-0.055432,0.104720,-0.119114,0.153025,-0.529662,-0.834291
1773765939.490262,0.020215,0.161598,0.155998,0.029255,0.077199,-0.111345,0.155719,-0.529228,-0.834068
1773765939.522462,0.000450,0.078692,0.178821,-0.029419,0.081802,-0.093290,0.158135,-0.529071,-0.833713
1773765939.530443,-0.022279,0.083457,0.193665,-0.070923,0.085469,-0.068301,0.160386,-0.527747,-0.834122
1773765939.549823,-0.037051,0.140020,0.221323,-0.001164,0.042692,-0.008348,0.161883,-0.526938,-0.834344
1773765939.569660,-0.043504,0.093950,0.221169,0.000718,0.022827,0.050968,0.162126,-0.527299,-0.834069
1773765939.589845,-0.050219,0.053835,0.218358,-0.074938,0.026756,0.083661,0.161699,-0.527026,-0.834324
1773765939.609927,-0.064517,0.076019,0.205281,-0.058566,0.026029,0.138700,0.160937,-0.526122,-0.835042
1773765939.629959,-0.079072,0.102496,0.184726,0.046309,0.038330,0.214769,0.159608,-0.526675,-0.834948
1773765939.650134,-0.082119,0.006534,0.142899,-0.018006,0.043007,0.218466,0.157787,-0.527926,-0.834504
1773765939.670243,-0.082628,-0.089824,0.109028,-0.177249,0.052595,0.167361,0.156466,-0.526891,-0.835407
1773765939.690411,-0.099530,-0.094426,0.059685,-0.229295,0.063084,0.132255,0.156033,-0.523708,-0.837487
1773765939.710508,-0.083019,-0.035460,0.002044,-0.109200,0.002163,0.160035,0.155254,-0.521089,-0.839263
1773765939.730820,-0.086738,-0.036965,-0.037654,-0.033785,-0.045703,0.183413,0.152992,-0.520667,-0.839940
1773765939.750960,-0.079359,-0.087883,-0.058649,-0.089740,-0.057470,0.156218,0.150236,-0.520287,-0.840673
1773765939.770982,-0.067504,-0.121979,-0.063228,-0.236009,-0.035976,0.081995,0.148208,-0.518051,-0.842412
1773765939.790988,-0.059440,-0.193689,-0.051498,-0.550260,-0.015767,0.004167,0.147392,-0.511786,-0.846375
1773765939.811317,-0.037640,-0.206600,0.021068,-0.895104,-0.040690,-0.099898,0.147336,-0.499211,-0.853862
1773765939.831308,-0.022403,-0.226385,0.068207,-1.190824,-0.033840,-0.316610,0.148669,-0.480798,-0.864136
1773765939.851442,0.062559,-0.284176,0.092844,-1.744051,0.053816,-0.337430,0.152132,-0.454608,-0.877603
1773765939.871363,0.161808,-0.307343,0.197938,-2.755963,0.245690,-0.125391,0.157009,-0.414321,-0.896485
1773765939.891753,0.372045,-0.268328,0.376666,-4.117452,0.311872,0.042374,0.162715,-0.351942,-0.921771
1773765939.911755,0.489340,-0.092206,0.659494,-5.628263,0.098018,-0.042714,0.167016,-0.260043,-0.951043
1773765939.931880,0.536006,0.108289,0.911512,-6.983780,-0.207482,-0.081763,0.166066,-0.137265,-0.976514
1773765939.951848,0.455045,0.300674,1.126476,-8.034916,-0.376128,-0.008538,0.160189,0.012254,-0.987010
1773765939.971922,0.394451,0.271980,1.201825,-8.606607,-0.439448,0.149830,0.152180,0.176308,-0.972500
1773765939.992388,0.391993,0.151172,1.171981,-9.502404,-0.517272,0.223273,0.144170,0.348279,-0.926238
1773765940.012111,0.452636,0.094175,1.134700,-10.567080,-0.926257,0.328990,0.134842,0.526430,-0.839457
1773765940.032241,0.449446,0.246931,1.062427,-10.666905,-1.254007,0.922743,0.125078,0.691820,-0.711155
1773765940.052348,0.435425,0.302344,0.834070,-10.377146,-1.257243,1.477984,0.127517,0.823404,-0.552942
1773765940.072331,0.417497,0.408649,0.532259,-9.153958,-1.302027,2.045787,0.146651,0.911282,-0.384783
1773765940.093925,0.335293,0.461233,0.268956,-7.488141,-1.645865,1.913085,0.174641,0.956873,-0.232152
1773765940.112697,0.217724,0.612265,-0.036531,-6.205981,-1.825544,1.899572,0.206669,0.972788,-0.104750
1773765940.132568,0.142616,0.518289,-0.164469,-4.904075,-1.918850,1.828924,0.240990,0.970511,-0.005743
1773765940.152983,0.069391,0.579012,-0.108004,-4.122068,-2.078094,1.706332,0.277059,0.958266,0.070467
1773765940.172818,-0.012908,0.532618,-0.058525,-4.186686,-2.177146,1.370988,0.311096,0.940603,0.135964
1773765940.193348,-0.146023,0.590444,-0.046152,-3.932769,-2.235135,1.061151,0.340557,0.919108,0.198145
1773765940.213921,-0.189765,0.805348,-0.120556,-2.646073,-2.165227,0.942260,0.368568,0.896953,0.244198
1773765940.233562,-0.233177,0.778408,-0.150818,-1.533415,-1.926259,0.852871,0.395027,0.879825,0.264313
1773765940.255149,-0.271776,0.611595,0.082907,-1.483521,-1.695414,0.645430,0.418138,0.865548,0.275659
1773765940.273222,-0.371886,0.567902,-0.018606,-1.250036,-1.254047,0.485875,0.436095,0.852859,0.287146
1773765940.293343,-0.402905,0.631470,-0.050294,-0.263696,-0.964443,0.292248,0.448651,0.845245,0.290299
1773765940.313517,-0.476212,0.437999,-0.071426,0.039090,-0.575201,0.155968,0.457017,0.842854,0.284134
1773765940.333592,-0.393061,0.425223,-0.017693,0.239186,-0.327672,0.139872,0.461756,0.842340,0.277931
1773765940.353919,-0.323921,0.322743,0.021181,0.016048,-0.111885,0.285272,0.466377,0.841319,0.273267
1773765940.374213,-0.229886,0.293818,0.077618,-0.205225,0.022280,0.561116,0.473584,0.836797,0.274754
1773765940.393944,-0.074535,0.360096,0.172200,-0.240450,0.055317,0.795599,0.484844,0.828792,0.279338
1773765940.413956,0.083903,0.493624,0.286494,-0.210121,0.080501,0.846010,0.497915,0.819547,0.283590
1773765940.434080,0.194189,0.709113,0.230637,0.141205,0.433860,0.866793,0.510767,0.810297,0.287292
1773765940.454215,0.181600,0.727652,0.296190,0.544310,0.799739,0.604812,0.519221,0.804895,0.287322
1773765940.474304,0.136590,0.477372,0.392302,0.413664,1.077604,0.445914,0.522208,0.802230,0.289354
1773765940.494418,0.065930,0.347126,0.316200,0.551072,1.318220,0.357556,0.521366,0.800762,0.294885
1773765940.514426,-0.026257,0.135095,0.214931,0.841462,1.474558,0.458575,0.519329,0.800833,0.298268
1773765940.534651,-0.081953,-0.027020,0.154492,1.065009,1.593084,0.677479,0.519148,0.800854,0.298526
1773765940.554768,-0.128393,-0.124434,0.189047,1.009817,1.569701,0.847513,0.522024,0.799162,0.298044
1773765940.574785,-0.154198,-0.274883,0.213131,0.748127,1.479187,0.887083,0.527031,0.795086,0.300128
1773765940.595088,-0.215077,-0.342473,0.197865,0.601723,1.357415,0.826138,0.532109,0.789861,0.304927
1773765940.614973,-0.255941,-0.392610,0.100287,0.532769,1.274493,0.754097,0.536459,0.784944,0.309960
1773765940.635301,-0.285465,-0.389193,-0.024960,0.501506,1.255148,0.724603,0.540073,0.780200,0.315610
1773765940.655495,-0.319271,-0.409236,-0.096718,0.403189,1.223262,0.780813,0.543820,0.774944,0.322060
1773765940.675898,-0.305430,-0.438499,-0.107673,0.221083,1.181383,0.921948,0.549067,0.767677,0.330452
1773765940.695462,-0.307931,-0.435202,-0.152256,0.055403,1.109703,1.155553,0.557122,0.757041,0.341327
1773765940.715622,-0.267813,-0.438491,-0.120344,0.072348,0.850082,1.238694,0.568457,0.743880,0.351423
1773765940.735589,-0.274597,-0.454456,-0.026972,0.418443,0.565307,1.301788,0.582259,0.730731,0.356379
1773765940.755896,-0.245666,-0.372842,0.037993,0.585379,0.347511,1.279696,0.597748,0.719140,0.354310
1773765940.776002,-0.120819,-0.207172,0.000536,0.581582,0.124591,1.298506,0.614532,0.707797,0.348387
1773765940.795847,-0.056955,-0.238705,0.050166,0.208343,0.034670,1.361381,0.632913,0.693966,0.343267
1773765940.817652,-0.041527,-0.136400,0.236888,-0.152506,-0.187790,1.330927,0.651833,0.676790,0.342153
1773765940.842614,0.108704,0.016467,0.243318,-0.381058,-0.525944,1.189443,0.671248,0.658460,0.340376
1773765940.857004,0.078905,0.043711,0.150768,-0.554220,-0.595346,1.047432,0.689604,0.639929,0.339024
1773765940.877110,0.203031,0.113713,0.164399,-0.585779,-0.708628,1.022049,0.707186,0.621592,0.336913
1773765940.896381,0.227788,0.047795,0.200808,-0.666563,-0.893048,1.031054,0.725276,0.602351,0.333387
1773765940.916645,0.277567,0.017753,0.210719,-0.522407,-1.048841,1.101190,0.744467,0.582390,0.326482
1773765940.936557,0.259709,0.127731,0.083004,-0.066668,-1.092223,1.327408,0.764903,0.562592,0.313709
1773765940.956737,0.323395,0.175039,-0.099447,0.476345,-1.027879,1.466725,0.786713,0.542659,0.294287
1773765940.976833,0.435826,0.074679,-0.175954,0.980658,-0.996903,1.376033,0.808101,0.522947,0.271108
1773765940.996974,0.528860,0.108565,-0.167955,1.240977,-1.148057,1.682788,0.830545,0.501817,0.241609
1773765941.017337,0.561155,0.199000,-0.139888,0.891668,-1.277037,1.542886,0.852328,0.478505,0.211116
1773765941.037390,0.450868,0.311756,-0.219538,0.751695,-1.315227,1.239340,0.870787,0.457302,0.180567
1773765941.057539,0.366175,0.278840,-0.228964,1.173841,-1.267732,0.847567,0.884435,0.442245,0.148977
1773765941.077512,0.325285,0.167446,-0.162340,1.648532,-1.221551,0.455037,0.893343,0.434559,0.114442
1773765941.097461,0.304008,-0.037565,-0.140002,2.051122,-1.130615,0.216759,0.898339,0.432524,0.076876
1773765941.117509,0.186925,-0.264295,-0.114684,1.759018,-1.128253,0.286794,0.901499,0.430967,0.039581
1773765941.137728,0.084284,-0.380807,-0.007101,0.845583,-1.337549,0.463662,0.905111,0.425134,0.005911
1773765941.157893,-0.017254,-0.542084,0.071725,-0.209389,-1.540624,0.718394,0.909741,0.414536,-0.023049
1773765941.178035,-0.150808,-0.519273,0.110359,-0.794069,-1.701947,0.893426,0.915182,0.400102,-0.048591
1773765941.197837,-0.239446,-0.442327,0.128616,-0.989785,-1.685546,1.020452,0.920659,0.383473,-0.073043
1773765941.218130,-0.308841,-0.388433,0.155834,-1.107700,-1.491230,1.117130,0.925907,0.365652,-0.094844
1773765941.238467,-0.341025,-0.330307,0.163945,-1.080370,-1.171110,1.219018,0.931448,0.346252,-0.111866
1773765941.258504,-0.326102,-0.266108,0.161828,-0.920470,-0.849148,1.322438,0.937614,0.324733,-0.124216
1773765941.278288,-0.298021,-0.164289,0.198770,-0.693030,-0.551882,1.401005,0.944444,0.300901,-0.132226
1773765941.298519,-0.247653,-0.151239,0.246796,-0.503913,-0.456229,1.381206,0.951220,0.275690,-0.138473
1773765941.318708,-0.188825,-0.110239,0.314907,-0.423471,-0.443179,1.328970,0.957181,0.250849,-0.144497
1773765941.338923,-0.110726,-0.058699,0.339869,-0.339912,-0.489013,1.201809,0.961892,0.227461,-0.151743
1773765941.359047,-0.060323,0.005337,0.330262,-0.395108,-0.440276,1.065550,0.965383,0.206562,-0.159272
1773765941.378865,-0.024620,0.065905,0.323060,-0.805972,-0.370717,0.870424,0.967827,0.189862,-0.165116
1773765941.399231,-0.029165,0.110150,0.265758,-1.087883,-0.156082,0.718699,0.969869,0.177524,-0.166851
1773765941.419339,-0.031075,0.274245,0.166523,-1.163802,0.040021,0.484033,0.971794,0.169481,-0.163990
1773765941.439337,-0.001697,0.345242,0.122318,-1.279794,0.225222,0.199000,0.973377,0.166797,-0.157215
1773765941.459334,0.033519,0.409589,0.148796,-1.477394,0.381204,-0.082444,0.974507,0.169864,-0.146568
1773765941.479366,0.068705,0.375542,0.148764,-1.625983,0.542898,-0.293284,0.975088,0.178184,-0.132116
1773765941.499767,0.080086,0.421728,0.120224,-1.669554,0.668753,-0.444583,0.975212,0.189554,-0.114151
1773765941.519840,0.143358,0.460554,0.118641,-1.619853,0.668544,-0.533284,0.974654,0.202822,-0.094410
1773765941.539859,0.247789,0.440030,0.171950,-1.578403,0.702690,-0.470885,0.973647,0.215625,-0.074279
1773765941.559965,0.304174,0.488467,0.176289,-1.439456,0.659700,-0.381340,0.972651,0.225980,-0.053700
1773765941.579910,0.392309,0.556928,0.194417,-1.172774,0.561361,-0.322659,0.971552,0.234118,-0.035711
1773765941.600277,0.382148,0.578820,0.200797,-0.577454,0.497736,-0.339432,0.970315,0.240928,-0.021049
1773765941.620009,0.301615,0.580146,0.181516,0.144290,0.521423,-0.490615,0.968512,0.248757,-0.010251
1773765941.640372,0.178925,0.553021,0.163514,0.767856,0.667009,-0.788807,0.965316,0.261081,-0.001176
1773765941.660531,0.083598,0.446173,0.185623,1.055116,0.885422,-1.090296,0.960103,0.279504,0.008881
1773765941.680675,0.075109,0.344305,0.196379,1.193761,1.067948,-1.362933,0.952631,0.303385,0.021257
1773765941.700647,0.108652,0.266957,0.195439,1.264442,1.217570,-1.572985,0.942572,0.332149,0.035152
1773765941.720745,0.114214,0.166054,0.241485,1.378715,1.303748,-1.752025,0.929899,0.364418,0.049866
1773765941.740889,0.082642,0.071983,0.268893,1.403883,1.257304,-1.891930,0.914367,0.400017,0.062604
1773765941.762599,-0.006723,0.028202,0.238117,1.317186,1.251258,-2.089790,0.895822,0.438229,0.073879
1773765941.780993,-0.060184,-0.066241,0.254722,0.939742,1.370031,-2.107416,0.874286,0.477573,0.086877
1773765941.800971,-0.109521,-0.156552,0.306733,0.639635,1.469149,-2.212356,0.849893,0.516476,0.104567
1773765941.821120,-0.122664,-0.200278,0.268237,0.607977,1.599122,-2.198653,0.822737,0.554755,0.123899
1773765941.841402,-0.090328,-0.137484,0.248993,0.800927,1.696461,-2.128674,0.793102,0.592287,0.142075
1773765941.861542,-0.106437,-0.296006,0.218912,1.221559,1.777851,-1.914568,0.762931,0.627061,0.157263
1773765941.881658,-0.114903,-0.429232,0.212351,1.262379,1.800427,-1.706595,0.733784,0.658465,0.167288
1773765941.901878,-0.063742,-0.549264,0.245119,0.761337,1.772760,-1.509407,0.706000,0.685098,0.179456
1773765941.921996,-0.019716,-0.547333,0.242584,0.134155,1.731688,-1.124559,0.680742,0.705475,0.197220
1773765941.942247,0.076267,-0.471752,0.240797,-0.197482,1.619065,-0.664857,0.660794,0.717525,0.220248
1773765941.962190,0.112330,-0.347212,0.194813,-0.099975,1.539233,-0.342103,0.646078,0.723554,0.243008
1773765941.982227,0.128230,-0.346344,0.148313,-0.027209,1.513237,-0.078236,0.635136,0.726029,0.263598
1773765942.002351,0.150341,-0.365317,0.198829,-0.301418,1.540502,0.097203,0.626988,0.724967,0.285149
1773765942.022377,0.232847,-0.379425,0.213636,-0.861184,1.523753,0.182919,0.619906,0.719604,0.312868
1773765942.042430,0.267119,-0.409897,0.199880,-1.512823,1.426542,0.187536,0.612901,0.709152,0.348505
1773765942.062659,0.302545,-0.341654,0.101321,-1.780130,1.272650,0.339588,0.606513,0.693384,0.389051
1773765942.082656,0.324480,-0.311038,0.189169,-1.874635,0.911248,0.380451,0.602873,0.672794,0.428827
1773765942.102518,0.452455,-0.330664,0.152625,-2.098738,0.363018,0.551401,0.603652,0.648368,0.463922
1773765942.123641,0.495374,-0.341662,0.141281,-2.501805,-0.144622,0.779460,0.611254,0.617937,0.494491
1773765942.143034,0.350529,-0.276834,0.075521,-2.692262,-0.406408,0.911350,0.624783,0.580728,0.521922
1773765942.163167,0.201744,0.001906,-0.103176,-2.055608,-0.449232,1.013795,0.640358,0.542543,0.543682
1773765942.182974,-0.036833,0.145844,-0.238618,-1.328826,-0.135886,1.000327,0.654508,0.511169,0.557069
1773765942.203308,-0.116053,0.118139,-0.317309,-1.014503,0.146143,0.855249,0.663966,0.485148,0.569018
1773765942.223447,-0.105980,0.108756,-0.266554,-1.528966,0.512819,0.699657,0.667961,0.458246,0.586378
1773765942.243443,-0.069013,0.445201,-0.227703,-1.075079,0.470083,0.705286,0.668057,0.434544,0.604045
1773765942.263398,-0.092529,0.415288,0.040180,-1.081247,0.479320,0.313672,0.666794,0.413951,0.619702
1773765942.283737,-0.241909,0.554508,0.142917,-1.459733,0.493946,-0.153352,0.661190,0.397717,0.636121
1773765942.303767,-0.283289,0.646325,0.103440,-1.700141,0.499037,-0.819377,0.651408,0.382133,0.655472
1773765942.323756,-0.344359,0.805780,0.235705,-2.105256,0.706226,-1.226826,0.635085,0.370184,0.677961
1773765942.343904,-0.219369,0.796266,0.445390,-2.466407,1.151273,-1.703718,0.611749,0.357054,0.705887
1773765942.363922,-0.002441,0.871537,0.579978,-2.120547,1.572268,-2.058823,0.578872,0.345977,0.738382
1773765942.383988,0.120217,0.995477,0.722353,-1.331766,2.187976,-2.281898,0.535300,0.344245,0.771330
1773765942.404270,0.331102,0.923188,0.977909,-0.917764,2.825721,-2.399202,0.479277,0.350677,0.804562
1773765942.424515,0.557187,0.894984,1.087807,-0.666643,3.531320,-2.428642,0.409564,0.359319,0.838539
1773765942.444194,0.688284,0.793372,1.158984,-0.502898,4.153306,-2.529221,0.325113,0.368249,0.871031
1773765942.465435,0.747623,0.659096,1.090253,-0.240193,4.653275,-2.549784,0.227551,0.376045,0.898227
1773765942.485053,0.775102,0.538302,0.965792,-0.106710,5.109420,-2.510499,0.119169,0.381940,0.916472
1773765942.504724,0.745601,0.332597,0.721558,-0.009161,5.671322,-2.389620,0.000661,0.383544,0.923523
1773765942.524839,0.683675,0.050096,0.463282,0.090370,6.184355,-2.362500,-0.127507,0.380949,0.915762
1773765942.545110,0.713739,-0.195649,0.138548,0.690424,6.485306,-2.243250,-0.260431,0.379197,0.887911
1773765942.565060,0.721784,-0.553033,0.168439,1.174287,6.588993,-2.061389,-0.390775,0.383431,0.836825
1773765942.584866,0.994731,-1.152554,0.513031,0.895469,5.969322,-1.320896,-0.507534,0.383664,0.771500
1773765942.605050,1.172019,-2.116546,0.697761,0.835190,4.956690,-0.190792,-0.593756,0.387390,0.705254
1773765942.625397,1.142118,-2.069832,0.427469,2.337019,4.886767,1.226569,-0.655210,0.413582,0.632178
1773765942.645696,1.043659,-2.090830,0.814229,3.608953,5.047971,2.286352,-0.697025,0.475138,0.537028
1773765942.665605,0.957014,-1.755726,1.020412,3.006380,5.402136,2.677678,-0.721296,0.544910,0.427556
1773765942.685846,0.879591,-1.098855,0.692387,1.870701,5.899880,3.016770,-0.730406,0.604532,0.317882
1773765942.705535,0.770629,-0.608043,0.196182,2.352548,6.354389,3.347017,-0.722182,0.661281,0.202881
1773765942.725795,0.734513,-0.535285,-0.090123,3.443813,5.710132,3.398104,-0.692566,0.717353,0.075872
1773765942.745936,0.459923,-0.852524,0.256522,4.948571,0.905877,1.572853,-0.651192,0.757798,-0.041128
1773765942.766044,2.342649,0.388403,-1.645689,2.576234,-0.931009,2.093414,-0.617643,0.779123,-0.107165
1773765942.786186,0.839366,-2.449168,-0.282683,-1.169290,2.518128,3.801125,-0.574474,0.809291,-0.122590
1773765942.806255,1.046012,-0.073777,0.307850,2.196341,2.995718,3.074631,-0.504019,0.850495,-0.150410
1773765942.826309,1.038549,1.603301,1.018778,3.815215,3.920475,2.933584,-0.467413,0.851472,-0.237741
1773765942.846731,-0.006471,-1.059792,0.862380,4.286543,2.088841,1.101791,-0.410277,0.854332,-0.319045
1773765942.866897,0.021591,-2.610554,0.917803,0.391777,3.855224,1.113905,-0.365951,0.853703,-0.370500
1773765942.886591,0.774773,0.236908,0.699160,1.492199,3.588662,1.427744,-0.316124,0.853012,-0.415254
1773765942.906841,0.578779,-1.211853,0.653255,1.070785,3.755959,1.627671,-0.258039,0.849563,-0.460063
1773765942.926823,0.918913,-0.823238,0.721038,0.829085,3.552904,1.836617,-0.193754,0.848369,-0.492675
1773765942.946872,1.013622,-0.723239,0.657353,0.366536,3.459779,2.056181,-0.125057,0.848544,-0.514134
1773765942.966882,1.406695,-0.718055,0.680685,-0.257760,3.667983,3.487517,-0.041445,0.853126,-0.520056
1773765942.986964,1.397291,-0.553181,0.233189,-0.837820,3.016940,4.066860,0.059267,0.857395,-0.511235
1773765943.007265,1.585495,-1.006915,0.182204,-1.588750,2.516369,4.229407,0.158447,0.859317,-0.486281
1773765943.027485,1.974082,-1.112317,-0.042099,-2.400760,2.419441,4.814900,0.258889,0.858945,-0.441803
1773765943.047511,2.526603,-0.959311,-0.574812,-3.318902,2.336595,5.508134,0.367302,0.850257,-0.377031
1773765943.067640,3.306793,-0.551649,-1.156978,-3.883908,1.727981,6.060242,0.479401,0.825300,-0.298421
1773765943.087523,3.749409,-0.329076,-1.530743,-5.291836,0.826804,6.390435,0.586864,0.781179,-0.212955
1773765943.107958,3.992998,-0.214399,-1.904102,-5.898272,-0.338998,6.323940,0.684736,0.718198,-0.123806
1773765943.127880,4.283109,-0.141185,-2.514041,-5.260327,-1.893369,5.976486,0.767246,0.638225,-0.063275
1773765943.147971,5.133887,-0.116396,-2.737131,-4.562701,-5.063323,5.128521,0.831063,0.553301,-0.056494
1773765943.168285,6.491328,0.369459,-2.313086,-3.335312,-8.652940,3.488783,0.863546,0.485659,-0.135736
1773765943.187932,7.927752,-1.303495,-1.282057,-4.401663,-11.099375,2.199116,0.849256,0.452634,-0.271821
1773765943.208194,9.509032,-2.007566,1.376648,-4.246301,-13.151286,1.891435,0.780717,0.450636,-0.432907
1773765943.228449,10.559196,-1.912744,4.032797,-6.361797,-15.039925,2.229927,0.652961,0.474283,-0.590506
1773765943.252954,10.989362,0.043962,5.160463,-13.275708,-4.541428,6.324816,0.504001,0.542739,-0.671876
1773765943.269171,14.326898,10.687145,12.428920,-1.624269,-17.267191,7.450326,0.289344,0.653400,-0.699534
1773765943.290915,-1.469599,-22.683578,5.726629,-5.221337,-15.153051,3.147461,0.093759,0.737107,-0.669240
1773765943.314505,2.488827,-5.618616,10.192386,-2.454816,-16.211264,1.191020,-0.125470,0.774470,-0.620044
1773765943.328957,4.604786,-5.733176,9.174289,-4.766284,-10.446997,0.874900,-0.262241,0.821006,-0.507128
1773765943.348911,2.901802,-3.346896,7.436269,-1.872841,-5.328176,1.623177,-0.311287,0.860217,-0.403890
1773765943.369137,0.850455,-1.490655,6.803326,-5.360885,-2.218837,1.813160,-0.303809,0.895959,-0.323971
1773765943.389278,-0.180861,0.820089,5.381121,-3.444711,-3.075779,1.847259,-0.288622,0.931117,-0.222979
1773765943.409224,-0.707605,0.735451,2.720765,-3.067454,-2.460476,2.294933,-0.256461,0.954872,-0.149827
1773765943.429540,-0.684555,0.304853,1.989001,-3.292134,-0.929582,2.367941,-0.216461,0.973208,-0.077533
1773765943.449363,-0.912320,0.248990,1.712672,-2.895190,0.272073,2.932196,-0.165011,0.986163,-0.015925
1773765943.469743,-0.758339,0.116653,1.141985,-2.383305,0.763632,3.322424,-0.102241,0.994111,0.035933
1773765943.489544,-0.413147,0.571342,0.795989,-1.332223,0.780814,3.621336,-0.032593,0.996896,0.071672
1773765943.510168,-0.160073,0.358186,0.432927,-1.157874,0.943946,3.340679,0.035958,0.994811,0.095179
1773765943.530227,-0.100827,0.326745,0.401010,-1.521598,1.086806,2.972238,0.096601,0.987693,0.123008
1773765943.550200,-0.112856,0.378992,0.327469,-1.949889,1.201550,2.733333,0.149340,0.975745,0.160065
1773765943.573348,-0.126299,0.175658,0.259202,-2.182405,1.373379,2.774465,0.197848,0.958269,0.206343
1773765943.591363,0.088527,0.507584,0.261721,-1.621355,1.222272,3.041016,0.247106,0.936553,0.248610
1773765943.610041,0.279675,0.387149,0.403218,-1.334480,1.112615,2.990172,0.297443,0.912046,0.282313
1773765943.630317,0.301811,0.412520,0.360540,-1.480618,1.161485,2.645897,0.342080,0.885713,0.313838
1773765943.650358,0.161276,0.491351,0.190164,-0.936422,1.293712,2.366668,0.377511,0.859021,0.345786
1773765943.670851,-0.056440,0.564710,0.160902,-0.357268,1.392267,2.161400,0.406645,0.836962,0.366244
1773765943.690759,-0.098578,0.618263,0.140861,-0.529131,1.466284,1.909802,0.429450,0.816948,0.384927
1773765943.710797,-0.154916,0.611149,0.086062,-0.552375,1.683346,1.810757,0.446664,0.795528,0.409421
1773765943.731002,-0.053935,0.799760,0.009073,0.391070,1.584766,1.765274,0.461619,0.778670,0.424948
1773765943.751107,0.001176,0.566536,-0.180122,0.774153,1.229908,1.530050,0.474730,0.768715,0.428612
1773765943.770943,0.065802,0.458421,-0.171826,0.287480,0.858671,1.130471,0.486444,0.760924,0.429379
1773765943.790960,0.107012,0.404558,-0.220070,0.014956,0.751373,0.876793,0.494200,0.752272,0.435723
1773765943.813444,0.266015,0.511225,-0.287684,0.075905,0.559257,0.708887,0.500571,0.744466,0.441813
1773765943.831576,0.368677,0.602681,-0.383713,0.624275,0.456362,0.577493,0.505697,0.740626,0.442429
1773765943.851604,0.472480,0.632743,-0.493987,1.485755,0.372259,0.519400,0.510461,0.744470,0.430343
1773765943.871629,0.659607,0.339957,-0.717822,3.829833,0.517949,1.568462,0.521103,0.757165,0.393894
1773765943.891688,0.716480,-0.396193,-0.009822,3.018613,-0.063841,1.456696,0.542904,0.768217,0.339259
1773765943.911845,0.690009,-0.275539,-0.125856,1.974200,0.414414,1.315280,0.561150,0.769619,0.304628
1773765943.931872,0.847566,-0.029196,-0.263410,2.229786,0.304392,1.736996,0.582518,0.764243,0.276777
1773765943.952038,0.807085,-0.084939,-0.305903,2.512321,0.251540,2.069735,0.610517,0.753609,0.243602
1773765943.972105,0.668570,-0.229124,-0.308389,2.473570,0.098690,2.094796,0.641245,0.738646,0.207864
1773765943.992047,0.518232,-0.382751,-0.114731,1.919031,-0.220045,1.846677,0.670672,0.721054,0.174012
1773765944.012569,0.370782,-0.511485,0.009146,0.885312,-0.459459,1.582296,0.696097,0.702281,0.149164
1773765944.032868,0.307899,-0.519426,-0.014263,-0.086952,-0.638972,1.445537,0.718621,0.681962,0.136059
1773765944.052602,0.239108,-0.430158,-0.060935,-0.732958,-0.737336,1.490360,0.740049,0.659482,0.131950
1773765944.072556,0.135201,-0.329154,-0.070272,-0.912761,-0.884026,1.645195,0.762642,0.633460,0.130789
1773765944.092623,0.011452,-0.252376,-0.029787,-0.807455,-0.974318,1.797570,0.786537,0.604305,0.127184
1773765944.112737,-0.093026,-0.220857,0.028376,-0.637399,-1.018746,1.856603,0.810769,0.573015,0.119619
1773765944.132929,-0.142490,-0.227549,0.075509,-0.544267,-1.040433,1.880237,0.834140,0.540629,0.109229
1773765944.153039,-0.154600,-0.193333,0.098428,-0.553468,-0.994582,1.876776,0.856047,0.507603,0.097586
1773765944.173329,-0.142400,-0.126480,0.076056,-0.587531,-0.919904,1.852997,0.876317,0.473892,0.086572
1773765944.193305,-0.137379,-0.062926,0.080581,-0.639155,-0.854420,1.790787,0.894581,0.440322,0.076432
1773765944.213602,-0.147490,-0.029523,0.102363,-0.682109,-0.816367,1.676143,0.910582,0.407896,0.066796
1773765944.233524,-0.141701,-0.009969,0.142269,-0.811176,-0.840782,1.465313,0.924111,0.377782,0.057438
1773765944.253526,-0.153421,0.006966,0.185851,-1.007088,-0.851673,1.182618,0.934762,0.351997,0.048142
1773765944.273767,-0.155994,0.037494,0.183878,-1.210612,-0.784415,0.956186,0.942798,0.330930,0.040213
1773765944.295255,-0.139152,0.074207,0.135023,-1.340927,-0.618001,0.779422,0.948905,0.313610,0.035036
1773765944.314120,-0.141322,0.126575,0.075830,-1.342327,-0.369593,0.676347,0.953700,0.298856,0.033805
1773765944.334140,-0.129840,0.134350,0.060210,-1.215065,-0.121393,0.633201,0.957691,0.285450,0.036698
1773765944.354261,-0.088646,0.184135,0.036100,-0.937668,0.096366,0.630678,0.961219,0.272469,0.042635
1773765944.374319,-0.065309,0.234594,-0.009001,-0.643243,0.202436,0.657539,0.964540,0.259180,0.049879
1773765944.394373,-0.062236,0.218696,-0.030251,-0.434360,0.223177,0.612639,0.967571,0.246102,0.056923
1773765944.414540,-0.013944,0.204213,-0.003452,-0.453763,0.177774,0.501365,0.970045,0.234630,0.062946
1773765944.434538,0.065897,0.182683,0.004735,-0.643233,0.122681,0.400386,0.971930,0.225124,0.068355
1773765944.454595,0.119936,0.215003,-0.015740,-0.846215,0.116100,0.347503,0.973402,0.216836,0.073968
1773765944.475820,0.181019,0.227490,-0.040364,-0.941821,0.182592,0.291625,0.974529,0.209217,0.080754
1773765944.495220,0.283618,0.278439,-0.068230,-0.804864,0.245865,0.264909,0.975324,0.202228,0.088585
1773765944.514716,0.435055,0.304860,-0.083922,-0.473870,0.271762,0.263162,0.975895,0.195796,0.096404
1773765944.534819,0.623146,0.348500,-0.093528,-0.026050,0.207003,0.224302,0.976403,0.190395,0.101920
1773765944.554891,0.627478,0.385086,-0.086225,0.379575,0.154451,0.084406,0.976693,0.187240,0.104933
1773765944.575011,0.402136,0.349129,-0.114633,0.811810,0.050416,-0.287403,0.976084,0.190529,0.104684
1773765944.595079,0.142660,0.199173,-0.123675,0.852366,0.022760,-0.700567,0.974115,0.201737,0.101992
1773765944.615301,-0.060379,0.184222,-0.119979,0.830035,0.030345,-1.188512,0.970001,0.222059,0.098937
1773765944.635577,-0.019448,0.157821,-0.122267,0.978706,-0.029627,-1.504769,0.963555,0.250184,0.094710
1773765944.655562,0.057354,0.070538,-0.089303,1.151085,-0.085470,-1.680833,0.955097,0.282993,0.087778
1773765944.675817,0.119965,0.070466,-0.064300,1.255057,-0.060217,-1.779023,0.944748,0.318114,0.079086
1773765944.695936,0.117710,0.069001,-0.065096,1.443507,-0.022247,-1.833883,0.932613,0.354202,0.069094
1773765944.716133,0.103005,0.069195,-0.028652,1.484468,-0.053507,-1.937917,0.918587,0.391041,0.057323
1773765944.736088,0.018381,0.033985,-0.006072,1.190115,-0.056732,-2.124925,0.901937,0.429516,0.044997
1773765944.756044,-0.041254,0.007240,-0.010521,0.798374,-0.103700,-2.339386,0.881891,0.470177,0.034660
1773765944.775988,-0.070220,-0.015840,0.013950,0.317341,-0.195579,-2.613370,0.857558,0.513704,0.026501
1773765944.796259,-0.004029,-0.025331,0.044720,-0.301915,-0.371557,-2.864481,0.828095,0.560167,0.021717
1773765944.816442,0.037271,-0.147491,0.152666,-1.128312,-0.558868,-3.136327,0.793173,0.608596,0.022078
1773765944.836516,0.050451,-0.215501,0.208057,-2.079619,-0.565287,-3.349465,0.752070,0.658219,0.033749
1773765944.856550,0.057882,-0.225625,0.248960,-3.155528,-0.468427,-3.588486,0.704645,0.706857,0.061877
1773765944.876727,0.093950,-0.317998,0.313103,-4.278832,-0.229635,-3.876978,0.651655,0.749929,0.113807
1773765944.896783,0.140761,-0.161724,0.391917,-5.085318,-0.024119,-3.985664,0.591997,0.784145,0.186163
1773765944.916930,0.258727,0.127404,0.384863,-5.061910,0.632179,-3.833951,0.528229,0.804892,0.270411
1773765944.937329,0.323897,0.435150,0.217042,-3.043035,1.145139,-3.615233,0.461534,0.816345,0.347228
1773765944.957090,0.346357,0.669031,0.182436,1.013893,2.039059,-3.020113,0.394991,0.838049,0.376372
1773765944.977390,0.364966,0.911105,0.082432,6.038368,2.885627,-2.433026,0.330621,0.882947,0.333309
1773765944.997532,0.389086,1.265760,0.204441,10.521891,3.366014,-2.462513,0.269651,0.942630,0.196820
1773765945.017736,0.455232,1.260171,0.571615,13.822521,3.478313,-2.654879,0.214538,0.976402,-0.024771
1773765945.037549,0.573751,1.173672,0.819579,14.366810,3.084059,-2.700022,0.173869,0.941562,-0.288497
1773765945.057572,0.702772,0.885324,0.649419,14.784751,2.146595,-2.384162,0.150835,0.829321,-0.538029
1773765945.077704,0.782640,1.079404,0.606085,17.505745,0.809027,-3.011260,0.134169,0.630541,-0.764471
1773765945.097655,0.852416,0.908252,0.970296,15.994711,-1.023735,-1.549664,0.109513,0.346966,-0.931462
1773765945.117810,0.930686,0.454975,1.260523,11.512810,-2.022648,-1.260338,0.071420,0.074383,-0.994669
1773765945.137926,0.569762,-0.636750,1.201470,5.395206,-1.953931,-1.454415,0.030855,-0.085708,-0.995842
1773765945.158229,0.405859,-0.453184,0.881222,3.269764,-1.975963,-1.747647,-0.003653,-0.168658,-0.985668
1773765945.178245,0.425944,-0.039031,0.488330,3.052714,-2.182220,-1.794988,-0.038310,-0.230348,-0.972354
1773765945.198465,0.431896,0.294582,0.249430,3.331495,-1.819250,-1.519319,-0.068722,-0.292903,-0.953669
1773765945.218472,0.328750,0.241560,0.340577,3.492403,-1.307940,-1.210187,-0.089416,-0.360686,-0.928391
1773765945.238613,0.327202,0.110277,0.518316,2.877007,-0.913515,-0.921142,-0.101021,-0.422075,-0.900915
1773765945.258646,0.317979,0.068026,0.632623,2.158735,-0.629632,-0.688242,-0.106783,-0.468661,-0.876901
1773765945.278744,0.368759,0.098548,0.609292,1.677211,-0.624584,-0.499183,-0.111343,-0.502982,-0.857095
1773765945.298724,0.407786,0.195687,0.492178,1.242263,-0.491963,-0.254552,-0.116846,-0.528252,-0.841009
1773765945.319131,0.342911,0.178717,0.462472,0.940435,-0.335068,-0.118025,-0.121948,-0.546942,-0.828241
1773765945.339619,0.222789,0.185599,0.459861,0.688921,-0.255978,-0.031362,-0.126079,-0.560340,-0.818611
1773765945.379210,0.153683,0.138231,0.403619,0.517036,-0.211902,0.033846,-0.130078,-0.570405,-0.810998
1773765945.379359,0.155943,0.114366,0.328687,0.317541,-0.131422,0.089091,-0.133512,-0.577348,-0.805508
1773765945.400374,0.147790,0.108628,0.275127,0.133739,0.004859,0.174704,-0.136117,-0.580537,-0.802776
1773765945.419219,0.158790,0.115589,0.231776,0.116735,0.149021,0.211582,-0.137259,-0.581638,-0.801784
1773765945.439322,0.133129,0.138102,0.212954,0.285899,0.088821,0.151046,-0.137356,-0.584498,-0.799685
1773765945.459442,0.144381,0.054967,0.182824,0.197778,0.065179,0.079639,-0.137500,-0.588216,-0.796929
1773765945.479355,0.091011,0.031505,0.198054,0.032007,0.039370,0.083641,-0.137809,-0.589977,-0.795573
1773765945.499791,0.068035,0.099800,0.154807,-0.060220,0.033582,0.025977,-0.137828,-0.589256,-0.796103
1773765945.520060,0.038783,0.012904,0.138026,0.025411,-0.006948,0.010631,-0.137919,-0.588466,-0.796672
1773765945.539883,0.068017,0.056717,0.100623,0.228112,-0.057268,-0.012877,-0.138498,-0.590561,-0.795020
1773765945.560066,0.078540,-0.031434,0.103787,0.219885,-0.050162,0.068543,-0.139759,-0.594344,-0.791974
1773765945.580122,0.064443,-0.066978,0.122624,0.083019,-0.151309,0.016372,-0.141927,-0.596719,-0.789800
1773765945.600108,0.072289,-0.091381,0.141036,-0.048927,-0.170053,0.035803,-0.144829,-0.596897,-0.789138
1773765945.620522,0.115160,-0.087396,0.119645,-0.111512,-0.223818,0.031930,-0.148424,-0.595465,-0.789552
1773765945.640446,0.143307,-0.071525,0.088042,-0.109914,-0.249383,0.119661,-0.152889,-0.593484,-0.790191
1773765945.660541,0.160486,-0.026122,0.120671,-0.213303,-0.291940,0.163042,-0.158761,-0.590852,-0.791005
1773765945.680521,0.152289,-0.070457,0.178959,-0.644575,-0.306469,0.231733,-0.165778,-0.583764,-0.794819
1773765945.700850,0.141381,-0.093899,0.295331,-1.352841,-0.328587,0.325277,-0.174233,-0.567020,-0.805066
1773765945.720821,0.153235,-0.071932,0.429231,-2.104213,-0.417985,0.548636,-0.185095,-0.537321,-0.822816
1773765945.740865,0.198463,-0.089938,0.609030,-3.092232,-0.568509,0.772993,-0.199943,-0.491392,-0.847677
1773765945.760935,0.243466,-0.108775,0.798824,-4.503777,-0.638615,0.933045,-0.217679,-0.422536,-0.879818
1773765945.781127,0.313819,-0.164111,1.033952,-6.238462,-0.685009,1.081956,-0.237510,-0.321317,-0.916703
1773765945.801202,0.272057,-0.134462,1.258364,-8.066405,-0.756415,1.382868,-0.257134,-0.180800,-0.949312
1773765945.821263,0.341239,-0.151689,1.461438,-9.854991,-0.943026,1.729729,-0.276298,0.000429,-0.961072
1773765945.841349,0.462746,-0.100990,1.526344,-11.298173,-1.300141,2.328444,-0.292412,0.214179,-0.931999
1773765945.861540,0.699928,-0.001723,1.552030,-12.093999,-1.535454,3.648638,-0.298103,0.443159,-0.845426
1773765945.881676,0.773581,-0.053729,1.428422,-12.678343,-1.529418,4.977985,-0.273566,0.662829,-0.697007
1773765945.901809,1.046699,-0.119781,1.155607,-11.830094,-1.722522,6.186141,-0.206596,0.840941,-0.500135
1773765945.925975,1.286762,0.172643,0.883555,-9.697556,-1.326034,7.751976,-0.091907,0.951456,-0.293742
1773765945.941848,1.339275,0.330872,0.660678,-6.416297,-0.895704,8.520475,0.062870,0.988464,-0.137790
1773765945.962022,1.475371,0.320652,0.787363,-4.453144,-0.097263,9.179739,0.237886,0.970715,-0.033517
1773765945.982164,1.565795,0.115745,0.847261,-3.724776,0.830071,9.445050,0.414628,0.908882,0.044905
1773765946.002421,2.033544,0.117385,0.551261,-2.879808,1.722070,9.512987,0.577189,0.808320,0.116067
1773765946.022470,2.444981,0.480480,0.060921,-0.296583,2.190438,9.250771,0.712673,0.680775,0.169242
1773765946.042454,2.570110,1.597970,-0.478852,2.565048,2.123922,8.687752,0.816136,0.546332,0.188264
1773765946.062497,1.416981,1.720632,-0.110079,4.319929,0.951429,7.178636,0.887676,0.424738,0.177844
1773765946.082784,0.722044,0.893884,0.350002,3.458064,0.647872,5.475305,0.932757,0.323172,0.159764
1773765946.102791,0.360725,0.369161,0.088815,-0.987680,0.234600,2.900019,0.955391,0.246531,0.162634
1773765946.123304,0.791240,0.171013,-0.717649,-4.572034,-0.424738,0.717464,0.965490,0.202705,0.163526
1773765946.143185,0.153786,1.480388,-0.853290,-4.942674,0.266584,0.498404,0.967095,0.174474,0.185169
1773765946.163322,0.286804,0.572105,-0.677543,-2.287759,0.150909,0.480706,0.967805,0.151711,0.200844
1773765946.183310,0.019188,0.800154,-0.400851,-0.354103,0.311177,0.711356,0.968468,0.135179,0.209277
1773765946.203852,-0.022998,0.852015,-0.213828,0.782061,-0.040449,0.840433,0.969760,0.120871,0.212027
1773765946.223576,0.039075,0.633587,-0.133473,1.197915,-0.645667,1.004350,0.973346,0.106938,0.202886
1773765946.243523,-0.083632,0.504391,-0.096396,1.352630,-1.069520,1.097508,0.978865,0.091190,0.183051
1773765946.263633,-0.112905,0.446408,-0.066619,0.990580,-1.287989,1.057644,0.984731,0.073764,0.157684
1773765946.283554,-0.066431,0.443590,-0.030259,0.314995,-1.472939,0.827240,0.989984,0.056990,0.129166
1773765946.303803,-0.023354,0.487922,0.016253,-0.306612,-1.536217,0.492442,0.994149,0.043496,0.098875
1773765946.323725,0.071518,0.516095,0.067519,-0.654052,-1.461272,0.148436,0.996949,0.036273,0.069123
1773765946.343833,0.199605,0.549946,0.125616,-0.713453,-1.304749,-0.271605,0.998469,0.036373,0.041666
1773765946.364063,0.276722,0.542094,0.166007,-0.714098,-1.127576,-0.691470,0.998806,0.045507,0.017755
1773765946.384184,0.333110,0.468399,0.218465,-0.778060,-0.938491,-1.153211,0.997960,0.063813,-0.002187
1773765946.404413,0.310380,0.397743,0.278206,-0.891189,-0.780705,-1.570277,0.995651,0.091393,-0.018104
1773765946.424534,0.264219,0.321273,0.297998,-0.872131,-0.621776,-1.864909,0.991534,0.126282,-0.030237
1773765946.444822,0.193409,0.249993,0.293996,-0.731877,-0.451450,-2.097927,0.985318,0.166312,-0.038594
1773765946.465160,0.104287,0.188681,0.271984,-0.480331,-0.278453,-2.193995,0.976859,0.209421,-0.043468
1773765946.484786,0.031170,0.140380,0.230899,-0.077755,-0.069295,-2.171029,0.966526,0.252472,-0.045672
1773765946.515882,0.021443,0.102029,0.188349,0.428210,0.164822,-2.032450,0.955028,0.292976,-0.045679
1773765946.524821,0.053291,0.061153,0.161088,1.001153,0.415621,-1.846149,0.943139,0.329381,-0.044694
1773765946.545048,0.060446,0.031050,0.129571,1.442775,0.639080,-1.692608,0.931406,0.361391,-0.043359
1773765946.565071,0.049077,-0.021228,0.103725,1.727559,0.785942,-1.594537,0.919704,0.390353,-0.042064
1773765946.585172,0.030526,-0.094829,0.135970,1.856974,0.867565,-1.600202,0.907523,0.417949,-0.041473
1773765946.605246,0.080325,-0.152451,0.157405,1.846606,0.892227,-1.673559,0.894116,0.445893,-0.041667
1773765946.625347,0.168987,-0.202719,0.171521,1.735564,0.836206,-1.779012,0.878941,0.475012,-0.042737
1773765946.645573,0.240599,-0.253847,0.195659,1.565849,0.729166,-1.902029,0.861574,0.505586,-0.045528
1773765946.665704,0.292359,-0.312164,0.202159,1.311052,0.615855,-2.031070,0.841659,0.537765,-0.049175
1773765946.685651,0.304751,-0.372449,0.219682,0.980238,0.532689,-2.180861,0.818861,0.571591,-0.052445
1773765946.705837,0.311414,-0.437506,0.181219,0.660248,0.548178,-2.287803,0.792911,0.607001,-0.053320
1773765946.725861,0.268566,-0.517067,0.165448,0.380538,0.613384,-2.339475,0.764485,0.642631,-0.050870
1773765946.746026,0.233288,-0.585987,0.116584,0.210340,0.729470,-2.266396,0.734501,0.677144,-0.044562
1773765946.766030,0.192100,-0.636215,0.042928,0.181501,0.848189,-2.033357,0.705132,0.708175,-0.035726
1773765946.786878,0.157800,-0.662879,-0.052442,0.262310,0.940027,-1.683877,0.678733,0.733908,-0.026461
1773765946.806487,0.122654,-0.659366,-0.087460,0.384960,0.965793,-1.281008,0.656978,0.753680,-0.018604
1773765946.826416,0.087767,-0.694241,-0.087210,0.411889,0.938947,-0.830616,0.641206,0.767270,-0.012338
1773765946.846815,0.029635,-0.687945,-0.088718,0.437602,0.892345,-0.370988,0.632169,0.774798,-0.007107
1773765946.866648,-0.007444,-0.688080,-0.106276,0.407136,0.837458,0.090508,0.630124,0.776489,-0.002824
1773765946.887291,-0.051915,-0.679918,-0.129590,0.305392,0.814564,0.527640,0.635075,0.772447,0.002164
1773765946.906835,-0.052949,-0.625935,-0.181324,0.215075,0.788733,0.974390,0.646608,0.762776,0.008442
1773765946.926958,-0.026845,-0.580608,-0.203984,0.121773,0.751525,1.401793,0.664556,0.747067,0.016041
1773765946.946972,0.017875,-0.531584,-0.208005,0.049677,0.684760,1.836564,0.688286,0.725020,0.024670
1773765946.967066,0.091609,-0.475542,-0.196020,-0.131041,0.542917,2.167969,0.716786,0.696474,0.033804
1773765946.987827,0.192880,-0.413013,-0.188235,-0.292512,0.375138,2.487782,0.748328,0.661884,0.043765
1773765947.007456,0.275938,-0.296100,-0.165443,-0.479179,0.193239,2.730530,0.781694,0.621402,0.053047
1773765947.027476,0.373541,-0.203199,-0.146841,-0.563984,-0.003964,2.896629,0.815516,0.575544,0.060689
1773765947.047475,0.426065,-0.115456,-0.105962,-0.843848,-0.095421,2.794769,0.847678,0.526375,0.066121
1773765947.067646,0.499509,-0.102729,-0.112729,-1.874228,-0.717590,2.447473,0.873614,0.480995,0.073773
1773765947.088309,0.546926,0.326656,-0.269343,-0.720355,-0.506312,2.626422,0.898157,0.433369,0.074198
1773765947.108207,0.457693,0.177885,-0.119108,-0.408977,-0.329601,2.598056,0.920374,0.384600,0.070676
1773765947.128706,0.588001,0.159982,-0.050505,-0.295314,-0.293633,2.388870,0.939069,0.337058,0.067396
1773765947.155959,0.665046,0.260905,-0.063895,0.037113,-0.128527,2.092148,0.953607,0.294087,0.064399
1773765947.170420,0.601353,0.316285,-0.032404,0.177210,-0.178785,1.660702,0.964229,0.257934,0.061091
1773765947.188147,0.403803,0.310614,0.033532,0.010562,-0.286456,1.181517,0.971563,0.230051,0.056052
1773765947.208367,0.186475,0.282782,0.058970,-0.199854,-0.369763,0.634394,0.976001,0.211953,0.049978
1773765947.228351,0.024200,0.275012,0.044715,-0.293286,-0.461315,0.047672,0.977829,0.204999,0.042733
1773765947.248554,-0.121015,0.207045,0.030470,-0.347034,-0.486845,-0.515186,0.977246,0.209260,0.034639
1773765947.268652,-0.207790,0.151215,0.038269,-0.444885,-0.450002,-0.962818,0.974331,0.223465,0.027252
1773765947.289061,-0.191806,0.112180,0.060748,-0.534602,-0.459056,-1.295266,0.969180,0.245471,0.020841
1773765947.309010,-0.117850,0.077931,0.085055,-0.526240,-0.503760,-1.479731,0.962088,0.272365,0.014295
1773765947.329104,-0.037831,0.047060,0.103266,-0.386175,-0.565616,-1.521106,0.953526,0.301237,0.006612
1773765947.349453,0.019484,0.011182,0.106520,-0.094776,-0.632368,-1.458595,0.944139,0.329531,-0.003233
1773765947.369529,0.020060,0.007305,0.101898,0.298067,-0.672649,-1.353995,0.934469,0.355671,-0.016327
1773765947.389481,0.012167,-0.024376,0.098552,0.636116,-0.674703,-1.069539,0.925394,0.377647,-0.032054
1773765947.409620,-0.062575,-0.124340,0.146679,0.522772,-0.531406,-0.723004,0.918136,0.393337,-0.048091
1773765947.429794,-0.094345,-0.168287,0.183232,0.491203,-0.406982,-0.613151,0.912491,0.404555,-0.060795
1773765947.449887,-0.108130,-0.155949,0.179693,0.418204,-0.374353,-0.509494,0.907278,0.414250,-0.072408
1773765947.470184,-0.126912,-0.279482,0.216008,0.032436,-0.263660,-0.474990,0.902806,0.422564,-0.079885
1773765947.490373,-0.093320,-0.172324,0.204057,-0.113860,-0.224883,-0.493316,0.898221,0.431510,-0.083649
1773765947.523778,-0.094678,-0.210030,0.221719,-0.221520,-0.168051,-0.490229,0.893552,0.440713,-0.085656
1773765947.541235,-0.084653,-0.179863,0.218625,-0.080952,-0.161492,-0.498960,0.888898,0.449791,-0.086881
1773765947.550692,-0.062673,-0.198350,0.221881,0.057479,-0.146124,-0.422546,0.884466,0.457948,-0.089465
1773765947.570878,-0.041731,-0.207423,0.225218,0.161199,-0.089463,-0.274699,0.880919,0.464107,-0.092665
1773765947.593572,-0.022672,-0.237730,0.229906,0.279954,0.001506,-0.113394,0.879057,0.466993,-0.095797
1773765947.611177,-0.011917,-0.243071,0.226346,0.249782,0.084447,0.040138,0.878891,0.466917,-0.097669
1773765947.630507,-0.008852,-0.227733,0.213178,0.121787,0.135878,0.129390,0.880007,0.464839,-0.097531
1773765947.650383,0.005353,-0.213423,0.196117,-0.039450,0.148025,0.199330,0.881854,0.461775,-0.095378
1773765947.676841,0.039061,-0.193013,0.194697,-0.187300,0.136645,0.246276,0.884218,0.457982,-0.091715
1773765947.691506,0.075816,-0.174992,0.200350,-0.355607,0.120809,0.281974,0.886861,0.453755,-0.087084
1773765947.710746,0.114375,-0.183432,0.213272,-0.514801,0.114802,0.320937,0.889928,0.448889,-0.080795
1773765947.732444,0.149649,-0.128270,0.201123,-0.517781,0.147445,0.352425,0.893136,0.443685,-0.073834
1773765947.752104,0.192586,-0.123214,0.185464,-0.516756,0.241887,0.429052,0.896830,0.437454,-0.065805
1773765947.771143,0.198930,-0.096186,0.171908,-0.491595,0.364426,0.511480,0.901290,0.429590,-0.055941
1773765947.791266,0.192609,-0.086729,0.145626,-0.511632,0.516922,0.590450,0.906451,0.420042,-0.043727
1773765947.813257,0.251288,-0.060340,0.111017,-0.473157,0.674291,0.686037,0.912225,0.408683,-0.028711
1773765947.832339,0.289650,-0.028437,0.072568,-0.363226,0.829233,0.801697,0.918526,0.395197,-0.011395
1773765947.852006,0.270127,0.011756,0.007902,-0.162517,0.964065,0.953355,0.925384,0.378960,0.007388
1773765947.871838,0.196347,0.082845,-0.092635,0.200126,1.077077,1.094829,0.932620,0.359889,0.026458
1773765947.891838,0.097811,0.175757,-0.213683,0.754089,1.192149,1.232930,0.939955,0.338388,0.044479
1773765947.916508,0.003680,0.233165,-0.275454,1.256697,1.202851,1.236236,0.946958,0.315526,0.060946
1773765947.933254,-0.042613,0.279464,-0.304656,1.723857,1.200531,1.174973,0.952800,0.294297,0.074584
1773765947.952161,-0.125769,0.272885,-0.295696,2.023912,1.079729,0.942162,0.957098,0.276767,0.085812
1773765947.972224,-0.139984,0.216971,-0.252194,2.086006,0.677424,0.561743,0.959610,0.265786,0.092236
1773765947.992514,-0.074864,0.092860,-0.194034,2.022642,-0.051827,0.034549,0.960713,0.263112,0.088336
1773765948.012351,0.198102,-0.020561,-0.330343,1.170787,-0.907203,-0.586495,0.959903,0.271461,0.069967
1773765948.032504,0.171099,-0.044708,-0.322352,0.826795,-1.122029,-0.934900,0.956709,0.287689,0.044093
1773765948.052607,0.167247,-0.067759,-0.205591,0.572666,-0.940710,-1.110335,0.951299,0.307643,0.019678
1773765948.072705,0.093109,-0.134251,-0.066937,0.148485,-0.609178,-1.236262,0.943985,0.329975,0.002819
1773765948.094429,0.042599,-0.138708,-0.030885,-0.129684,-0.398431,-1.388429,0.934924,0.354788,-0.006453
1773765948.113241,0.020224,-0.124652,-0.012282,-0.230689,-0.260105,-1.515848,0.924112,0.381961,-0.011048
1773765948.132939,0.006798,-0.146480,0.023367,-0.218827,-0.158606,-1.586342,0.911705,0.410640,-0.013006
1773765948.153084,0.003281,-0.184938,0.055705,-0.147968,-0.155492,-1.577873,0.898117,0.439531,-0.014094
1773765948.173256,0.004003,-0.228329,0.071820,0.025433,-0.185395,-1.465767,0.884212,0.466793,-0.016553
1773765948.193431,0.005754,-0.272765,0.108734,0.198346,-0.235913,-1.295732,0.870848,0.491088,-0.021362
1773765948.213649,0.006436,-0.325877,0.127542,0.330964,-0.275647,-1.062996,0.858829,0.511470,-0.028482
1773765948.233597,-0.006969,-0.363105,0.134830,0.391482,-0.291901,-0.794041,0.848964,0.527137,-0.037235
1773765948.254044,-0.026471,-0.390203,0.140319,0.343934,-0.217200,-0.498309,0.841870,0.537740,-0.045715
1773765948.273840,-0.041149,-0.390488,0.129701,0.283381,-0.073315,-0.199536,0.837948,0.543305,-0.051606
1773765948.294234,-0.046988,-0.348410,0.096321,0.216656,0.110086,0.102642,0.837561,0.543677,-0.053917
1773765948.314004,-0.046710,-0.311729,0.063542,0.176707,0.263062,0.314168,0.840136,0.539802,-0.052769
1773765948.334220,-0.025876,-0.284650,0.051593,0.133843,0.352714,0.432236,0.844556,0.533201,-0.049227
1773765948.354279,0.004778,-0.246274,0.031386,0.128468,0.394369,0.449341,0.849714,0.525388,-0.044203
1773765948.374454,0.051407,-0.236573,0.033366,0.081627,0.389576,0.405995,0.854599,0.517854,-0.038585
1773765948.394474,0.100445,-0.236171,0.052034,-0.045027,0.330480,0.307119,0.858600,0.511608,-0.032610
1773765948.414381,0.121420,-0.258399,0.078213,-0.245518,0.250706,0.189806,0.861337,0.507362,-0.026120
1773765948.434604,0.128324,-0.262259,0.069055,-0.412340,0.182090,0.113530,0.862948,0.504935,-0.019021
1773765948.454865,0.166795,-0.239941,0.034148,-0.508006,0.142178,0.114951,0.864120,0.503155,-0.011519
1773765948.475027,0.204138,-0.218979,-0.001619,-0.605507,0.123646,0.218725,0.865762,0.500442,-0.003676
1773765948.495069,0.279106,-0.220471,-0.013672,-0.780921,0.112602,0.385163,0.868706,0.495297,0.005478
1773765948.514943,0.375694,-0.160519,-0.025791,-0.826676,0.023445,0.592629,0.873559,0.486493,0.014835
1773765948.535623,0.402871,-0.134329,0.002904,-0.890242,-0.086479,0.756192,0.880210,0.474066,0.022197
1773765948.555405,0.333981,-0.122490,0.013751,-0.987807,-0.194478,0.858541,0.888004,0.458946,0.028593
1773765948.575436,0.221691,-0.065852,0.002234,-0.948570,-0.271127,0.843121,0.895955,0.442896,0.033289
1773765948.595715,0.095751,-0.026892,-0.028700,-0.846362,-0.279408,0.720665,0.903120,0.427862,0.036162
1773765948.615584,-0.024770,-0.005328,-0.054528,-0.699399,-0.244251,0.515270,0.908605,0.415927,0.037973
1773765948.635857,-0.146291,0.013140,-0.075505,-0.452043,-0.176612,0.300451,0.912206,0.407881,0.038899
1773765948.655600,-0.175621,-0.019959,-0.071875,-0.219992,-0.121388,0.093504,0.913918,0.404022,0.038993
1773765948.675921,-0.118065,-0.025990,-0.054977,0.037194,-0.102593,-0.028583,0.914238,0.403416,0.037750
1773765948.695995,-0.004231,-0.032812,-0.038806,0.275717,-0.112294,-0.032296,0.914006,0.404226,0.034564
1773765948.715963,0.110031,-0.042543,-0.026535,0.466860,-0.169879,0.050885,0.914154,0.404329,0.029007
1773765948.736252,0.204113,-0.047486,-0.006715,0.574831,-0.262520,0.168784,0.915165,0.402543,0.020783
1773765948.756141,0.231957,-0.047690,0.021407,0.562077,-0.374190,0.265340,0.917075,0.398582,0.010301
1773765948.776426,0.218701,-0.062872,0.063393,0.427046,-0.496315,0.298870,0.919467,0.393164,-0.001686
1773765948.796551,0.180117,-0.085920,0.111883,0.192918,-0.606314,0.236108,0.921567,0.387953,-0.014379
1773765948.816501,0.118539,-0.084247,0.146746,-0.084046,-0.681709,0.106657,0.922675,0.384647,-0.026781
1773765948.836929,0.052477,-0.079541,0.163247,-0.312091,-0.720934,-0.040260,0.922530,0.384030,-0.038217
1773765948.856723,-0.011734,-0.069297,0.177566,-0.442320,-0.731731,-0.193918,0.920990,0.386527,-0.048721
1773765948.876969,-0.059370,-0.077883,0.185259,-0.458986,-0.684547,-0.313037,0.918257,0.391680,-0.058230
1773765948.896991,-0.082196,-0.079816,0.186513,-0.377660,-0.611882,-0.396793,0.914640,0.398709,-0.066823
1773765948.919116,-0.077486,-0.088561,0.184213,-0.243924,-0.521966,-0.423964,0.910509,0.406691,-0.074670
1773765948.937432,-0.050977,-0.097900,0.188905,-0.103886,-0.440327,-0.414404,0.906294,0.414627,-0.081956
1773765948.957105,-0.004547,-0.116941,0.202227,-0.024021,-0.384019,-0.390679,0.902252,0.421949,-0.088885
1773765948.977464,0.044607,-0.144152,0.228705,-0.041908,-0.359159,-0.359731,0.898401,0.428698,-0.095359
1773765948.997382,0.087264,-0.176078,0.252933,-0.124298,-0.358341,-0.338391,0.894715,0.435050,-0.101078
1773765949.017951,0.125802,-0.192613,0.270520,-0.254024,-0.363567,-0.318854,0.891090,0.441300,-0.105893
1773765949.038052,0.161778,-0.193577,0.283015,-0.349124,-0.357924,-0.280300,0.887646,0.447269,-0.109706
1773765949.057947,0.185164,-0.189318,0.282535,-0.376846,-0.316356,-0.217145,0.884675,0.452456,-0.112400
1773765949.078131,0.182856,-0.171311,0.280805,-0.354975,-0.251145,-0.168776,0.882299,0.456666,-0.114042
1773765949.097979,0.181925,-0.160979,0.283011,-0.306243,-0.159857,-0.158813,0.880392,0.460174,-0.114676
1773765949.117967,0.125789,-0.172992,0.286699,-0.288779,-0.041753,-0.215373,0.878499,0.464007,-0.113741
1773765949.138264,0.040557,-0.192603,0.276879,-0.327706,0.101543,-0.315880,0.876115,0.469290,-0.110405
1773765949.158373,-0.017632,-0.211530,0.237869,-0.358400,0.267288,-0.405665,0.873101,0.476347,-0.103866
1773765949.178625,-0.044328,-0.215888,0.193035,-0.317437,0.428927,-0.447504,0.869676,0.484519,-0.094372
1773765949.198679,-0.042623,-0.217484,0.159569,-0.195779,0.556687,-0.434417,0.866231,0.492676,-0.083153
1773765949.218558,-0.043715,-0.234803,0.131549,-0.048067,0.644721,-0.385924,0.863112,0.499940,-0.071398
1773765949.238944,-0.062193,-0.252187,0.109121,0.049129,0.713585,-0.309996,0.860502,0.505940,-0.059667
1773765949.258967,-0.038508,-0.276888,0.075623,0.115259,0.781445,-0.200032,0.858714,0.510241,-0.047593
1773765949.279254,-0.003368,-0.278305,0.033731,0.150603,0.819820,-0.060712,0.858043,0.512375,-0.035120
1773765949.298933,0.029839,-0.274964,0.000366,0.151957,0.837874,0.092306,0.858726,0.511948,-0.022338
1773765949.319006,0.068363,-0.268588,-0.028640,0.101282,0.805571,0.236132,0.860730,0.508975,-0.009445
1773765949.339645,0.093428,-0.266729,-0.047523,-0.074328,0.761515,0.326819,0.863710,0.503973,0.004051
1773765949.359287,0.144213,-0.233793,-0.071338,-0.240384,0.623076,0.368048,0.867093,0.497831,0.017703
1773765949.379896,0.165763,-0.243640,-0.099956,-0.384879,0.492703,0.320818,0.870263,0.491581,0.031475
1773765949.399882,0.241797,-0.297556,-0.137442,-0.817725,0.189419,0.240982,0.872537,0.486537,0.044287
1773765949.419539,0.261017,-0.075463,-0.281030,-0.743441,0.019897,0.279869,0.874969,0.481118,0.054361
1773765949.439945,0.241007,-0.121619,-0.360160,-0.779554,-0.216944,0.268632,0.877798,0.475302,0.059653
1773765949.459962,0.183083,-0.157960,-0.358868,-1.040432,-0.333811,0.244569,0.880653,0.469560,0.062954
1773765949.480143,0.126210,-0.152158,-0.319938,-1.279572,-0.349875,0.208935,0.883205,0.464047,0.067893
1773765949.500158,0.136376,-0.106772,-0.273070,-1.305238,-0.332454,0.238246,0.885719,0.458289,0.073988
1773765949.520149,0.150645,-0.078837,-0.238594,-1.218218,-0.369860,0.342174,0.888967,0.451060,0.079262
1773765949.540488,0.107162,-0.014219,-0.220020,-0.920514,-0.456271,0.402149,0.893022,0.442564,0.081547
1773765949.560572,0.105037,0.010155,-0.212515,-0.563668,-0.524942,0.477395,0.897694,0.433418,0.079337
1773765949.580757,0.058849,0.043219,-0.213797,-0.256358,-0.621384,0.510359,0.902959,0.423593,0.072349
1773765949.600785,0.035078,0.016875,-0.201120,-0.135883,-0.699239,0.472205,0.908022,0.414338,0.061807
1773765949.620680,0.011287,0.013181,-0.183157,-0.142348,-0.702283,0.426293,0.912541,0.405932,0.049872
1773765949.640860,0.002613,-0.025542,-0.139226,-0.270978,-0.633407,0.375133,0.916393,0.398360,0.039159
1773765949.660789,-0.008725,-0.029090,-0.081699,-0.415858,-0.507804,0.324242,0.919614,0.391562,0.031467
1773765949.681235,-0.009624,-0.023142,-0.025413,-0.509194,-0.443648,0.244644,0.922146,0.385935,0.026481
1773765949.701269,-0.022888,-0.011847,-0.006089,-0.464902,-0.352439,0.218240,0.924087,0.381492,0.022965
1773765949.721167,-0.041660,-0.011002,0.026801,-0.317035,-0.259028,0.219091,0.925953,0.377090,0.020349
1773765949.741374,-0.031112,-0.025597,0.035585,-0.067164,-0.211998,0.232666,0.927780,0.372720,0.017469
1773765949.761603,-0.025054,-0.018102,0.057875,0.173656,-0.206135,0.195104,0.929504,0.368582,0.013063
1773765949.781569,-0.001005,-0.047398,0.072152,0.262264,-0.169224,0.145480,0.930845,0.365330,0.007835
1773765949.801768,0.013168,-0.045639,0.075048,0.244953,-0.139073,0.066174,0.931687,0.363251,0.002970
1773765949.823798,0.006773,-0.046510,0.072950,0.153168,-0.067133,-0.023746,0.931887,0.362749,-0.000471
1773765949.842620,-0.011117,-0.036266,0.065803,0.128988,0.012176,-0.116018,0.931405,0.363979,-0.001991
1773765949.861685,-0.030010,-0.030332,0.055453,0.190962,0.088093,-0.208166,0.930248,0.366925,-0.002246
1773765949.881827,-0.035520,-0.034092,0.042688,0.311349,0.150633,-0.282295,0.928464,0.371418,-0.001840
1773765949.901901,-0.031585,-0.039908,0.032492,0.433166,0.193619,-0.359629,0.926086,0.377310,-0.001394
1773765949.922244,-0.019196,-0.062200,0.027013,0.504960,0.219425,-0.431446,0.923081,0.384603,-0.001149
1773765949.942869,0.002407,-0.088577,0.028207,0.525933,0.234324,-0.493387,0.919484,0.393128,-0.000970
1773765949.962296,0.036875,-0.111974,0.031800,0.517614,0.219799,-0.542461,0.915365,0.402623,-0.000947
1773765949.982773,0.074159,-0.131124,0.035202,0.495760,0.205413,-0.567023,0.910841,0.412755,-0.001205
1773765950.002735,0.101950,-0.155503,0.043306,0.457244,0.177945,-0.574022,0.906076,0.423112,-0.001726
1773765950.022801,0.133488,-0.176403,0.053446,0.410738,0.148543,-0.572304,0.901195,0.433407,-0.002497
1773765950.045472,0.143019,-0.202570,0.062409,0.352542,0.118925,-0.559174,0.896257,0.443522,-0.003464
1773765950.063221,0.125077,-0.220003,0.069939,0.282102,0.095328,-0.551776,0.891311,0.453371,-0.004509
1773765950.082903,0.088280,-0.244214,0.074681,0.210616,0.079244,-0.545813,0.886314,0.463056,-0.005253
1773765950.103001,0.041649,-0.267691,0.075930,0.130725,0.082238,-0.552427,0.881202,0.472708,-0.005435
1773765950.123224,-0.006163,-0.283201,0.070950,0.070686,0.104234,-0.550826,0.875944,0.482390,-0.004742
1773765950.143455,-0.034860,-0.290469,0.065807,0.024610,0.130394,-0.524994,0.870707,0.491793,-0.003139
1773765950.163452,-0.048226,-0.315120,0.067001,-0.016652,0.151807,-0.462363,0.865807,0.500377,-0.000732
1773765950.183828,-0.040717,-0.324468,0.068500,-0.051412,0.182656,-0.350637,0.861686,0.507436,0.002545
1773765950.203712,-0.023803,-0.328195,0.065497,-0.064357,0.217741,-0.183006,0.858931,0.512048,0.006586
1773765950.224029,0.001002,-0.332020,0.060479,-0.063755,0.258819,0.019567,0.858037,0.513463,0.011313
1773765950.243946,0.040060,-0.319881,0.054623,-0.077423,0.311314,0.249959,0.859369,0.511074,0.016971
1773765950.264090,0.096863,-0.293524,0.048306,-0.100895,0.364278,0.491273,0.863037,0.504584,0.023731
1773765950.284215,0.161576,-0.272659,0.043494,-0.137758,0.411665,0.730773,0.868988,0.493820,0.031655
1773765950.304315,0.227201,-0.236654,0.041754,-0.168767,0.448641,0.968550,0.877032,0.478705,0.040705
1773765950.324216,0.276809,-0.180581,0.018343,-0.162948,0.491344,1.211631,0.886918,0.459145,0.050627
1773765950.344414,0.288087,-0.124273,-0.012975,-0.120918,0.530571,1.450569,0.898360,0.434988,0.061117
1773765950.364521,0.269596,-0.065057,-0.041782,-0.060556,0.556824,1.642490,0.910778,0.406610,0.071781
1773765950.384729,0.238542,-0.001940,-0.069088,0.015604,0.544195,1.770543,0.923430,0.374865,0.082180
1773765950.404812,0.185324,0.057517,-0.083379,0.053836,0.509558,1.807300,0.935464,0.341287,0.091817
1773765950.424814,0.121155,0.109357,-0.104021,0.014551,0.500982,1.770944,0.946213,0.307361,0.101046
1773765950.444911,0.060543,0.160832,-0.151330,0.041492,0.498111,1.648574,0.955204,0.274516,0.110573
1773765950.465230,0.004180,0.238137,-0.199457,0.127573,0.447799,1.451969,0.962296,0.244376,0.119440
1773765950.485124,-0.029003,0.259043,-0.203852,0.190076,0.407386,1.196052,0.967418,0.219030,0.126994
1773765950.505361,-0.081187,0.269513,-0.206520,0.211340,0.346009,0.934461,0.970927,0.198627,0.133598
1773765950.525382,-0.083493,0.276482,-0.205060,0.228140,0.224301,0.641669,0.973188,0.183800,0.138288
1773765950.545492,-0.079598,0.258212,-0.180028,0.184114,0.111343,0.371031,0.974557,0.174375,0.140828
1773765950.565646,-0.046756,0.243159,-0.158260,0.107299,-0.021683,0.129267,0.975300,0.169850,0.141216
1773765950.585696,-0.009129,0.237774,-0.137211,0.025739,-0.146091,-0.052905,0.975667,0.169346,0.139271
1773765950.605550,0.008431,0.225407,-0.130275,-0.029347,-0.232919,-0.184134,0.975792,0.171627,0.135555
1773765950.625672,0.021167,0.222827,-0.126639,-0.041583,-0.293990,-0.274966,0.975705,0.175992,0.130484
1773765950.645921,0.039799,0.221750,-0.119298,0.007797,-0.360069,-0.341279,0.975444,0.181952,0.124104
1773765950.665852,0.052249,0.214355,-0.096219,0.063499,-0.418718,-0.404164,0.975019,0.189225,0.116331
1773765950.686154,0.052162,0.187396,-0.058149,0.093301,-0.478319,-0.491562,0.974312,0.198026,0.107251
1773765950.706321,0.043800,0.158237,-0.014947,0.082004,-0.534210,-0.623285,0.973107,0.208966,0.096933
1773765950.726630,0.049370,0.116138,0.031187,0.015763,-0.574110,-0.784971,0.971107,0.222668,0.085848
1773765950.747078,0.051139,0.082676,0.064197,-0.075126,-0.586111,-0.955511,0.968026,0.239482,0.074658
1773765950.766222,0.056561,0.055478,0.076597,-0.102679,-0.575057,-1.096555,0.963703,0.259234,0.063829
1773765950.786598,0.053401,0.024314,0.087365,-0.068369,-0.529613,-1.199094,0.958119,0.281304,0.053626
1773765950.806737,0.051821,-0.001271,0.097999,0.024748,-0.482235,-1.264002,0.951399,0.304799,0.044030
1773765950.826745,0.041657,-0.039438,0.113459,0.130862,-0.421865,-1.265590,0.943695,0.328973,0.034887
1773765950.846879,0.023856,-0.081984,0.124115,0.223958,-0.357068,-1.237101,0.935388,0.352645,0.026307
1773765950.867486,0.018379,-0.113614,0.122078,0.348415,-0.283825,-1.142533,0.926842,0.375012,0.018151
1773765950.887144,-0.006139,-0.157085,0.121982,0.429612,-0.209709,-1.034218,0.918523,0.395229,0.010510
1773765950.907371,-0.028335,-0.195412,0.125464,0.450494,-0.143128,-0.867318,0.910888,0.412636,0.003732
1773765950.927696,-0.050602,-0.210639,0.121982,0.475524,-0.088565,-0.697186,0.904331,0.426826,-0.002216
1773765950.948752,-0.063972,-0.234665,0.129243,0.444047,-0.051082,-0.535097,0.898964,0.437958,-0.007539
1773765950.967547,-0.053434,-0.258182,0.144174,0.397685,-0.043288,-0.388694,0.894926,0.446048,-0.012200
1773765950.987498,-0.024326,-0.273866,0.165600,0.340407,-0.056189,-0.251719,0.892093,0.451555,-0.016369
1773765951.007781,-0.006124,-0.274485,0.182347,0.232709,-0.043558,-0.130052,0.890341,0.454859,-0.019917
1773765951.027801,0.002428,-0.262391,0.193136,0.157120,-0.026220,-0.041008,0.889601,0.456193,-0.022314
1773765951.052203,0.002963,-0.257766,0.209399,0.090962,-0.006752,-0.002654,0.889416,0.456482,-0.023730
1773765951.068158,0.003793,-0.257997,0.226317,0.049079,0.052037,0.023063,0.889548,0.456209,-0.024046
1773765951.088317,0.010420,-0.258347,0.240824,0.052469,0.138137,0.032853,0.889864,0.455659,-0.022760
1773765951.108121,0.022047,-0.244010,0.237993,0.131590,0.266184,0.089262,0.890505,0.454536,-0.019945
1773765951.128222,0.077494,-0.235408,0.239404,0.214026,0.428223,0.157775,0.891744,0.452281,-0.015314
1773765951.148491,0.173626,-0.221974,0.222212,0.287041,0.598018,0.271654,0.893818,0.448353,-0.008284
1773765951.168760,0.247587,-0.201958,0.200565,0.319092,0.783021,0.363260,0.896731,0.442574,0.001309
1773765951.188729,0.244385,-0.186788,0.168418,0.338239,0.939113,0.446352,0.900254,0.435140,0.014032
1773765951.208996,0.186770,-0.173357,0.139983,0.324336,1.044880,0.474860,0.903897,0.426744,0.029313
1773765951.229068,0.156991,-0.161458,0.098546,0.318512,1.120447,0.417305,0.906974,0.418645,0.046199
1773765951.249252,0.147759,-0.116834,0.020664,0.289116,1.202083,0.357423,0.908958,0.411817,0.064831
1773765951.268933,0.161956,-0.092488,-0.072918,0.206396,1.283908,0.277738,0.909791,0.406208,0.085293
1773765951.289043,0.160025,-0.096796,-0.166067,0.071150,1.449474,0.283852,0.909372,0.401438,0.109045
1773765951.309306,0.162996,-0.002998,-0.257445,-0.033620,1.592684,0.220470,0.908064,0.395820,0.136916
1773765951.329692,0.432076,0.264028,-0.913558,1.568744,0.223339,0.106204,0.905998,0.396174,0.149047
1773765951.349583,0.123499,0.894050,-1.311139,1.336097,-0.686881,-0.543308,0.903799,0.407402,0.131039
1773765951.369526,0.085376,0.144410,-0.889106,0.856861,-0.914975,-1.026841,0.899487,0.423996,0.105598
1773765951.389780,0.039010,-0.049353,-0.713338,-0.156155,-0.634028,-1.222219,0.891028,0.445288,0.088247
1773765951.409803,0.049608,-0.138206,-0.536239,-0.724995,-0.392121,-1.147019,0.880842,0.465934,0.083801
1773765951.429647,0.060503,-0.161764,-0.375935,-0.851508,-0.241581,-0.850545,0.871901,0.482031,0.086232
1773765951.449878,0.052264,-0.222987,-0.236776,-0.724985,-0.328880,-0.547623,0.865507,0.492915,0.089071
1773765951.469911,0.037518,-0.219649,-0.193479,-0.436005,-0.380890,-0.181390,0.862583,0.498000,0.089140
1773765951.489883,0.004960,-0.139354,-0.160947,0.086342,-0.444341,0.095440,0.863052,0.498149,0.083600
1773765951.510086,0.005329,-0.180897,-0.097011,0.561978,-0.508442,0.329372,0.865979,0.494862,0.072063
1773765951.530389,0.003344,-0.200490,-0.040383,0.820040,-0.573152,0.505035,0.870924,0.488286,0.055398
1773765951.550463,0.011242,-0.223417,-0.007204,0.756903,-0.603130,0.603591,0.877003,0.479047,0.037142
1773765951.570564,0.017515,-0.218881,0.005770,0.505881,-0.601356,0.627187,0.883303,0.468363,0.020292
1773765951.590729,0.020561,-0.203419,0.011474,0.175560,-0.575041,0.615805,0.889275,0.457326,0.006638
1773765951.610910,0.058852,-0.165582,0.016168,-0.041599,-0.557889,0.608398,0.894868,0.446313,-0.003991
1773765951.631414,0.157967,-0.122925,0.039285,-0.111375,-0.555882,0.621268,0.900245,0.435180,-0.013284
1773765951.651607,0.263482,-0.094198,0.071959,-0.121378,-0.554523,0.653552,0.905616,0.423513,-0.022307
1773765951.671029,0.270656,-0.069644,0.099244,-0.110331,-0.556220,0.636418,0.910817,0.411609,-0.031464
1773765951.691199,0.132167,-0.046317,0.092346,-0.090180,-0.541343,0.556339,0.915395,0.400489,-0.040756
1773765951.711325,-0.027519,-0.034455,0.069406,-0.084395,-0.492582,0.389490,0.918770,0.391663,-0.049615
1773765951.731242,-0.114211,-0.036444,0.050484,-0.078921,-0.466382,0.182950,0.920562,0.386297,-0.057793
1773765951.751513,-0.128258,-0.058233,0.068232,-0.117221,-0.477046,-0.037741,0.920586,0.384970,-0.065730
1773765951.771864,-0.079451,-0.088465,0.113712,-0.228116,-0.497773,-0.220984,0.918914,0.387568,-0.073413
1773765951.791722,-0.024425,-0.108016,0.147227,-0.402775,-0.539628,-0.319084,0.915981,0.393050,-0.080561
1773765951.811915,0.008357,-0.135692,0.169505,-0.582697,-0.545565,-0.351861,0.912389,0.400050,-0.086635
1773765951.831886,0.027190,-0.149832,0.191394,-0.775722,-0.541004,-0.332016,0.908617,0.407568,-0.091129
1773765951.852101,0.046178,-0.160819,0.217931,-0.917723,-0.516087,-0.250869,0.905208,0.414482,-0.093831
1773765951.873183,0.038155,-0.163897,0.236396,-0.993219,-0.443520,-0.089569,0.902855,0.419421,-0.094550
1773765951.892725,0.008070,-0.148474,0.227633,-0.950979,-0.334687,0.120388,0.902223,0.421027,-0.093432
1773765951.912198,-0.026400,-0.117550,0.202155,-0.774970,-0.188407,0.368994,0.903826,0.418132,-0.090903
1773765951.932312,-0.048319,-0.073158,0.159017,-0.476977,0.010441,0.631434,0.907892,0.410026,-0.087240
1773765951.952552,-0.069835,-0.040835,0.122277,-0.160467,0.178547,0.833283,0.914104,0.396930,-0.082833
1773765951.972633,-0.077610,-0.009202,0.119675,0.050888,0.322761,0.983095,0.921696,0.380021,-0.077851
1773765951.992873,-0.061223,0.024319,0.091422,0.149431,0.445808,1.046935,0.929937,0.360690,-0.071555
1773765952.012868,-0.021620,0.007361,0.031062,-0.227684,0.605890,0.925694,0.937651,0.342081,-0.061580
1773765952.032942,0.019996,0.085469,0.007917,-0.149731,0.536471,0.939540,0.944650,0.324352,-0.049329
1773765952.054178,0.050682,0.120018,0.019501,-0.099942,0.532024,0.891758,0.951088,0.306465,-0.038864
1773765952.072864,0.042103,0.138683,-0.034310,-0.041091,0.504260,0.778746,0.956447,0.290562,-0.027961
1773765952.093317,0.055336,0.182390,-0.055332,0.139930,0.378644,0.666508,0.960793,0.276564,-0.019741
1773765952.113255,0.029073,0.148993,-0.039353,0.159156,0.338656,0.483187,0.964122,0.265085,-0.014098
1773765952.133326,0.037455,0.115472,-0.049191,0.262266,0.293847,0.305721,0.966192,0.257682,-0.008564
1773765952.153566,0.009397,0.184663,-0.071300,0.446068,0.218217,0.224534,0.967608,0.252395,-0.005711
1773765952.173735,0.044910,0.112959,-0.079986,0.463653,0.190143,0.051915,0.968304,0.249743,-0.004044
1773765952.193775,0.011974,0.087665,-0.084142,0.314396,0.164659,-0.092762,0.968251,0.249966,-0.002696
1773765952.213896,0.055116,0.101666,-0.103459,0.315396,0.120314,-0.245273,0.967375,0.253345,-0.001292
1773765952.233835,0.049069,0.086025,-0.102884,0.328464,0.075396,-0.381778,0.965793,0.259312,-0.001166
1773765952.254102,0.064290,0.068450,-0.088711,0.414474,0.034687,-0.570550,0.963253,0.268586,-0.002506
1773765952.274148,0.095798,-0.015933,-0.058391,0.236245,-0.025507,-0.536212,0.960293,0.278964,-0.004125
1773765952.294268,0.077393,0.037394,-0.053126,0.219558,-0.063789,-0.591183,0.957123,0.289617,-0.006200
1773765952.314477,0.059298,0.009958,-0.045125,0.251520,-0.087259,-0.657526,0.953413,0.301535,-0.008983
1773765952.334434,0.026230,-0.000938,-0.025239,0.310819,-0.104808,-0.706533,0.949173,0.314506,-0.012526
1773765952.354670,0.010388,-0.035629,-0.012543,0.375448,-0.123787,-0.720435,0.944583,0.327835,-0.016937
1773765952.374805,0.005159,-0.060601,-0.002160,0.445104,-0.130141,-0.682674,0.939833,0.340920,-0.022071
1773765952.394755,0.003542,-0.080454,0.011938,0.501080,-0.126477,-0.627722,0.935224,0.352961,-0.027823
1773765952.414827,0.020836,-0.112038,0.029609,0.456901,-0.117489,-0.576184,0.930839,0.363884,-0.033577
1773765952.434848,0.020455,-0.130714,0.048904,0.390147,-0.097856,-0.519165,0.926750,0.373680,-0.038711
1773765952.455249,0.021196,-0.154407,0.065414,0.303796,-0.077346,-0.480626,0.922911,0.382602,-0.043014
1773765952.475185,0.015200,-0.161741,0.072657,0.229725,-0.055594,-0.432122,0.919370,0.390669,-0.046228
1773765952.495389,0.015472,-0.179144,0.081235,0.175421,-0.060171,-0.389090,0.916047,0.398077,-0.048917
1773765952.515477,0.020135,-0.172892,0.085169,0.176137,-0.014523,-0.314014,0.913260,0.404169,-0.051020
1773765952.551375,0.043716,-0.185664,0.080537,0.178559,0.014561,-0.217996,0.911087,0.408854,-0.052522
1773765952.556147,0.035116,-0.181828,0.079379,0.187550,0.071043,-0.153125,0.909662,0.411930,-0.053180
1773765952.575472,0.030111,-0.185657,0.083830,0.177673,0.125320,-0.078611,0.908793,0.413883,-0.052885
1773765952.595853,0.030242,-0.198336,0.091398,0.146695,0.188450,-0.020868,0.908540,0.414630,-0.051359
1773765952.615630,0.034432,-0.191916,0.077073,0.116351,0.226397,0.016495,0.908760,0.414465,-0.048722
1773765952.635891,0.048116,-0.205937,0.057088,0.044706,0.285395,0.073789,0.909404,0.413518,-0.044591
1773765952.656249,0.088898,-0.175750,0.046951,0.008995,0.260779,0.165707,0.910599,0.411361,-0.039901
1773765952.675864,0.087234,-0.205371,0.013924,-0.063126,0.268234,0.215585,0.912415,0.407809,-0.034508
1773765952.696644,0.100671,-0.124747,-0.007086,0.048897,0.253655,0.298985,0.914619,0.403205,-0.029977
1773765952.716464,0.087061,-0.138321,-0.006215,0.118868,0.224369,0.355146,0.917455,0.396973,-0.026240
1773765952.736354,0.040058,-0.132995,-0.012111,0.061287,0.204154,0.357131,0.920483,0.390106,-0.022999
1773765952.756750,0.015480,-0.134572,-0.023483,-0.009552,0.169454,0.302930,0.923210,0.383794,-0.019623
1773765952.776735,-0.006085,-0.124317,-0.018581,-0.101947,0.129706,0.263989,0.925488,0.378422,-0.016407
1773765952.796722,-0.004953,-0.128956,-0.027383,-0.168874,0.105386,0.241424,0.927453,0.373707,-0.013175
1773765952.816659,-0.018772,-0.118317,-0.040138,-0.184259,0.090522,0.275456,0.929416,0.368897,-0.010018
1773765952.836971,-0.027788,-0.103252,-0.046762,-0.166062,0.080453,0.346544,0.931749,0.363033,-0.007178
1773765952.857538,-0.029875,-0.090056,-0.047039,-0.140596,0.075181,0.416789,0.934538,0.355834,-0.004597
1773765952.877177,-0.031550,-0.071958,-0.048205,-0.111295,0.059375,0.479879,0.937739,0.347334,-0.002363
1773765952.897422,-0.023939,-0.058443,-0.042675,-0.114085,0.035439,0.539942,0.941266,0.337664,-0.000660
1773765952.917442,-0.017098,-0.044869,-0.030571,-0.147540,0.009864,0.557683,0.944954,0.327203,0.000618
1773765952.937569,-0.005695,-0.022690,-0.018602,-0.191511,-0.000286,0.544989,0.948582,0.316528,0.001787
1773765952.957629,0.011222,-0.007875,-0.016287,-0.226356,0.013974,0.507039,0.951898,0.306398,0.003225
1773765952.977958,0.046968,0.010119,-0.016033,-0.217528,0.032561,0.466843,0.954909,0.296857,0.005032
1773765952.997916,0.080444,0.043161,-0.028112,-0.148890,0.052880,0.417299,0.957550,0.288184,0.006918
1773765953.018069,0.099265,0.054462,-0.038739,-0.071573,0.078395,0.356829,0.959786,0.280590,0.008908
1773765953.037925,0.106302,0.069412,-0.051349,0.021439,0.082360,0.256296,0.961523,0.274521,0.010562
1773765953.058165,0.073084,0.064435,-0.057987,0.048694,0.060280,0.114710,0.962576,0.270755,0.011799
1773765953.078055,0.041669,0.050234,-0.054815,0.028996,0.022199,-0.065941,0.962726,0.270200,0.012304
1773765953.098328,0.038372,0.018785,-0.045498,-0.062560,-0.020181,-0.245533,0.961888,0.273162,0.012432
1773765953.118442,0.059013,0.013642,-0.054851,-0.118605,-0.085363,-0.385112,0.960152,0.279220,0.012004
1773765953.138475,0.036924,0.001688,-0.052980,-0.127547,-0.145707,-0.453514,0.957811,0.287207,0.010469
1773765953.158783,-0.000694,-0.015906,-0.042781,-0.121901,-0.197891,-0.496356,0.955086,0.296225,0.007869
1773765953.179095,-0.028739,-0.037222,-0.035362,-0.109544,-0.240049,-0.515655,0.952079,0.305822,0.004325
1773765953.198897,-0.061817,-0.063907,-0.010670,-0.141615,-0.261417,-0.513581,0.948902,0.315570,0.000248
1773765953.218887,-0.070950,-0.085788,0.008786,-0.175325,-0.255116,-0.481189,0.945691,0.325046,-0.003720
1773765953.239044,-0.056889,-0.098596,0.018223,-0.203487,-0.242344,-0.420204,0.942677,0.333627,-0.007282
1773765953.259275,-0.008598,-0.102218,0.033350,-0.225742,-0.200021,-0.310963,0.940147,0.340621,-0.010035
1773765953.279398,0.073653,-0.090358,0.030648,-0.172965,-0.139242,-0.175262,0.938462,0.345179,-0.011834
1773765953.299346,0.112426,-0.068646,0.014939,-0.074426,-0.081691,-0.063383,0.937669,0.347287,-0.013001
1773765953.319612,0.093781,-0.063089,0.014022,0.003987,-0.054082,-0.039399,0.937378,0.348032,-0.014037
1773765953.339466,0.060916,-0.066254,0.020381,0.024324,-0.047278,-0.110172,0.936917,0.349228,-0.015055
1773765953.359725,0.020574,-0.090833,0.025127,-0.048125,-0.052339,-0.227560,0.935771,0.352246,-0.016002
1773765953.379772,0.015193,-0.111144,0.025940,-0.151671,-0.054266,-0.357154,0.933690,0.357711,-0.016312
1773765953.399857,0.015358,-0.119294,0.017160,-0.201015,-0.052664,-0.405796,0.930886,0.364960,-0.016000
1773765953.420053,0.006699,-0.125540,0.014086,-0.176706,-0.041864,-0.358624,0.928024,0.372198,-0.015490
1773765953.443365,-0.015266,-0.128626,0.007828,-0.069699,-0.028108,-0.246914,0.925743,0.377847,-0.015213
1773765953.460344,-0.047179,-0.133850,0.005852,0.029742,0.002479,-0.091981,0.924468,0.380951,-0.015328
1773765953.479956,-0.070163,-0.136256,0.012471,0.090221,0.026815,0.070443,0.924441,0.381007,-0.015553
1773765953.500075,-0.067044,-0.135717,0.025118,0.092722,0.059242,0.230575,0.925641,0.378087,-0.015459
1773765953.520242,-0.030731,-0.126447,0.022542,0.079593,0.086121,0.374226,0.927978,0.372342,-0.014760
1773765953.540502,0.036518,-0.093025,0.010350,0.097973,0.111268,0.497479,0.931287,0.364037,-0.013524
1773765953.560423,0.089013,-0.056289,-0.007798,0.153868,0.127512,0.576043,0.935264,0.353744,-0.012114
1773765953.580717,0.093759,-0.021686,-0.017311,0.195558,0.109443,0.561640,0.939368,0.342731,-0.011086
1773765953.600767,0.062311,-0.017976,-0.006679,0.144012,0.085746,0.439992,0.942877,0.332978,-0.010395
1773765953.620927,0.041850,-0.015603,0.001453,0.073979,0.065688,0.243415,0.945211,0.326318,-0.009677
1773765953.641092,0.036667,-0.024644,0.004748,0.004047,0.065546,0.041408,0.946167,0.323563,-0.008669
1773765953.661603,0.039131,-0.016614,-0.003432,0.023363,0.071086,-0.087105,0.946007,0.324064,-0.007372
1773765953.681091,0.044248,-0.006266,-0.023004,0.116796,0.091992,-0.098712,0.945376,0.325923,-0.006247
1773765953.701197,0.037602,-0.007894,-0.041286,0.233205,0.089861,-0.063204,0.944896,0.327321,-0.005696
1773765953.721498,0.021322,-0.019881,-0.037240,0.299957,0.074340,-0.021022,0.944712,0.327849,-0.005897
1773765953.741403,0.008659,-0.042884,-0.030809,0.295987,0.045143,0.003291,0.944741,0.327751,-0.006651
1773765953.761737,0.007090,-0.045412,-0.034152,0.207413,0.001016,-0.013919,0.944738,0.327731,-0.007963
1773765953.781795,0.030088,-0.057707,-0.021733,0.087404,-0.062991,-0.049182,0.944613,0.328047,-0.009547
1773765953.801946,0.031400,-0.037929,-0.014358,0.016315,-0.098939,-0.090944,0.944216,0.329128,-0.011429
1773765953.822014,0.034915,-0.034345,-0.009877,0.008291,-0.102433,-0.113201,0.943570,0.330900,-0.013469
1773765953.841980,0.041149,-0.049559,-0.003987,0.058020,-0.102633,-0.142141,0.942676,0.333342,-0.015635
1773765953.862162,0.036387,-0.058623,0.009978,0.094028,-0.094564,-0.153816,0.941625,0.336180,-0.018020
1773765953.882137,0.035823,-0.061740,0.009398,0.140800,-0.066266,-0.151537,0.940587,0.338946,-0.020308
1773765953.902428,0.041818,-0.076265,0.009424,0.182132,-0.043128,-0.125993,0.939643,0.341417,-0.022501
1773765953.922508,0.045654,-0.084481,0.007520,0.188604,-0.035030,-0.106405,0.938873,0.343377,-0.024671
1773765953.942551,0.047350,-0.091794,0.011316,0.166767,-0.053602,-0.080622,0.938246,0.344952,-0.026514
1773765953.962731,0.040940,-0.091691,0.020280,0.102378,-0.061259,-0.109408,0.937591,0.346558,-0.028642
1773765953.982847,0.044345,-0.098422,0.024440,0.071283,-0.087261,-0.128043,0.936780,0.348575,-0.030650
1773765954.002788,0.059709,-0.111938,0.035987,0.040354,-0.095411,-0.128801,0.935911,0.350707,-0.032783
1773765954.022895,0.063631,-0.112567,0.045574,-0.002078,-0.063947,-0.135943,0.934935,0.353153,-0.034359
1773765954.042936,0.064546,-0.117814,0.038378,0.025692,-0.043903,-0.098319,0.934096,0.355256,-0.035479
1773765954.063095,0.056116,-0.131484,0.047496,0.037653,0.012918,-0.059081,0.933569,0.356582,-0.036022
1773765954.083141,0.037093,-0.128522,0.032951,0.064188,0.040762,0.008292,0.933458,0.356886,-0.035911
1773765954.103108,0.038339,-0.146227,0.036969,0.058707,0.071832,0.034111,0.933647,0.356448,-0.035352
1773765954.123734,0.027587,-0.143172,0.022413,0.061175,0.104694,0.082744,0.934174,0.355178,-0.034163
1773765954.143528,0.014633,-0.135100,0.015103,0.056808,0.118055,0.142755,0.935059,0.352996,-0.032544
1773765954.163737,0.012316,-0.132160,0.009512,0.049673,0.104860,0.200359,0.936384,0.349628,-0.030737
1773765954.183843,0.016055,-0.124699,0.006804,0.025821,0.105288,0.264089,0.938123,0.345082,-0.029036
1773765954.203953,0.011300,-0.128224,0.002532,-0.051250,0.105640,0.334393,0.940269,0.339360,-0.027007
1773765954.224140,0.005297,-0.109028,-0.013897,-0.076804,0.137372,0.413680,0.942915,0.332157,-0.024158
1773765954.244117,-0.019624,-0.074999,-0.035454,-0.030664,0.138881,0.494313,0.945985,0.323519,-0.021171
1773765954.264213,-0.027422,-0.054680,-0.049721,0.003836,0.130609,0.532974,0.949373,0.313606,-0.018485
1773765954.284358,-0.036980,-0.028589,-0.069321,0.037342,0.101745,0.567097,0.952874,0.302927,-0.016357
1773765954.304345,-0.055696,-0.018726,-0.078926,0.010878,0.051494,0.541502,0.956240,0.292194,-0.015114
1773765954.324530,-0.083659,-0.003108,-0.068790,-0.077083,-0.022639,0.489003,0.959269,0.282115,-0.014630
1773765954.345005,-0.086390,-0.008327,-0.040652,-0.209092,-0.100946,0.410223,0.961787,0.273387,-0.015042
1773765954.364804,-0.063231,0.008192,-0.035683,-0.337927,-0.166623,0.332648,0.963759,0.266284,-0.016197
1773765954.384549,-0.050311,0.026873,-0.027552,-0.394932,-0.221191,0.275044,0.965335,0.260389,-0.018057
1773765954.404565,-0.057617,0.035822,-0.002934,-0.432333,-0.248510,0.222816,0.966568,0.255591,-0.020488
1773765954.424821,-0.054116,0.047072,0.024217,-0.452148,-0.232413,0.181095,0.967507,0.251801,-0.022936
1773765954.445087,-0.054101,0.048601,0.042220,-0.466828,-0.191433,0.127121,0.968194,0.248976,-0.024748
1773765954.465074,-0.050300,0.061457,0.056809,-0.435815,-0.134547,0.081305,0.968636,0.247152,-0.025711
1773765954.485310,-0.046338,0.063961,0.066447,-0.387420,-0.070178,0.034446,0.968884,0.246173,-0.025737
1773765954.505570,-0.045389,0.068963,0.070526,-0.333831,0.003875,-0.007643,0.968943,0.246055,-0.024627
1773765954.525691,-0.046009,0.069794,0.072405,-0.241777,0.085334,-0.035857,0.968876,0.246536,-0.022341
1773765954.545689,-0.039034,0.073856,0.067116,-0.125616,0.155816,-0.030299,0.968767,0.247235,-0.019097
1773765954.565792,-0.028128,0.078090,0.055981,0.007037,0.211588,-0.014705,0.968726,0.247670,-0.015163
1773765954.587800,-0.012905,0.080302,0.044164,0.124067,0.238755,-0.007010,0.968746,0.247807,-0.011098
1773765954.606075,-0.002130,0.075907,0.030148,0.172436,0.218962,-0.000643,0.968805,0.247716,-0.007321
1773765954.626032,-0.011178,0.048914,0.037497,0.123672,0.173095,-0.083128,0.968667,0.248327,-0.004264
1773765954.645939,-0.017336,0.071161,0.032951,-0.001248,0.090566,-0.211618,0.967990,0.250982,-0.002037
1773765954.666211,-0.025160,0.071397,0.026350,-0.136340,0.044936,-0.343165,0.966597,0.256300,-0.000349
1773765954.686120,-0.025259,0.053852,0.028717,-0.118296,-0.006087,-0.484511,0.964438,0.264309,0.000641
1773765954.706407,0.004771,0.068734,0.007944,-0.018881,-0.026292,-0.565590,0.961584,0.274512,0.000646
1773765954.726529,0.050314,0.078934,-0.002246,0.068727,-0.015686,-0.611643,0.958277,0.285842,0.000064
1773765954.746479,0.100356,0.075791,-0.017676,0.167832,0.024255,-0.622699,0.954698,0.297576,-0.000619
1773765954.766785,0.111990,0.049573,-0.014092,0.228439,0.040939,-0.653945,0.950830,0.309711,-0.001182
1773765954.786861,0.117164,0.034206,-0.034505,0.386556,-0.043281,-0.734363,0.946435,0.322880,-0.003077
1773765954.806978,0.117716,-0.014426,-0.067006,0.380967,-0.138269,-0.844941,0.941229,0.337684,-0.007579
1773765954.827200,0.090967,-0.054777,-0.087040,0.227900,-0.173062,-0.948070,0.935004,0.354414,-0.012599
1773765954.847140,0.089381,-0.082356,-0.097404,0.087743,-0.212259,-1.056415,0.927632,0.373097,-0.017235
1773765954.867291,0.099597,-0.088838,-0.112854,0.023571,-0.225180,-1.140127,0.919095,0.393435,-0.021775
1773765954.887323,0.099939,-0.117503,-0.119151,-0.008083,-0.216389,-1.163117,0.909751,0.414363,-0.025640
1773765954.907514,0.151898,-0.120659,-0.177960,0.217185,-0.284272,-1.151065,0.899768,0.435265,-0.031009
1773765954.927606,0.168606,-0.138554,-0.224832,0.401212,-0.311003,-0.903601,0.890491,0.453282,-0.039512
1773765954.947488,0.071257,-0.240246,-0.109167,0.005284,-0.187553,-0.865685,0.882219,0.468578,-0.046091
1773765954.967792,0.090116,-0.289599,0.005393,-0.586688,-0.001592,-0.790560,0.874102,0.483661,-0.044928
1773765954.987892,0.115271,-0.254636,-0.003041,-0.733805,0.158095,-0.589646,0.867410,0.496244,-0.036632
1773765955.007990,0.095110,-0.240606,-0.016846,-0.607195,0.231996,-0.410884,0.862501,0.505361,-0.026489
1773765955.028092,0.039840,-0.251517,-0.019303,-0.430848,0.248998,-0.229038,0.859452,0.510932,-0.017029
1773765955.048321,-0.000847,-0.274064,-0.017151,-0.367855,0.303490,-0.046918,0.858146,0.513337,-0.008346
1773765955.068218,-0.026056,-0.263007,-0.043280,-0.330204,0.345328,0.126645,0.858621,0.512611,0.000708
1773765955.088460,-0.048420,-0.243567,-0.067961,-0.279986,0.408189,0.312569,0.860950,0.508582,0.010451
1773765955.108349,-0.059185,-0.230126,-0.078354,-0.262384,0.436620,0.478305,0.864895,0.501534,0.020508
1773765955.128538,-0.073845,-0.217858,-0.088426,-0.293215,0.442054,0.601540,0.870125,0.491860,0.030916
1773765955.148644,-0.063321,-0.195926,-0.110633,-0.266369,0.441835,0.699333,0.876203,0.480152,0.041511
1773765955.168773,-0.052618,-0.159771,-0.142799,-0.282452,0.448867,0.782216,0.882894,0.466701,0.051842
1773765955.188796,-0.011449,-0.116039,-0.182101,-0.419785,0.441289,0.830856,0.889913,0.451779,0.062854
1773765955.209016,0.097531,-0.033724,-0.247314,-0.825393,0.268581,0.755598,0.896579,0.436617,0.074234
1773765955.229231,0.265270,0.083307,-0.243517,-1.470452,0.031249,0.456075,0.901737,0.423407,0.087160
1773765955.254914,0.414216,0.231621,-0.282876,-1.884143,-0.426247,0.068215,0.904358,0.415383,0.097955
1773765955.270754,0.426071,0.310186,-0.327035,-1.532425,-0.812154,-0.059462,0.905350,0.412394,0.101357
1773765955.289199,0.251248,0.262966,-0.235515,-0.815701,-0.854082,-0.001028,0.906864,0.410496,0.095348
1773765955.309283,0.082026,0.123077,-0.177376,-0.031039,-0.682336,0.079934,0.908651,0.408875,0.084709
1773765955.329558,-0.028288,0.012405,-0.092308,0.444623,-0.435632,0.101114,0.910353,0.407471,0.072288
1773765955.349638,-0.044081,-0.099916,-0.032919,0.519898,-0.233551,0.112093,0.911712,0.406084,0.062277
1773765955.370039,-0.034447,-0.076018,-0.019205,0.567325,-0.216654,0.072289,0.912835,0.404768,0.053812
1773765955.390090,-0.014666,-0.129467,0.024080,0.278039,-0.283219,0.009230,0.913439,0.404415,0.045576
1773765955.410045,0.000279,-0.136660,0.031677,0.009676,-0.297104,-0.004837,0.913738,0.404437,0.038910
1773765955.429886,-0.008181,-0.149983,0.094721,-0.262512,-0.415101,-0.041014,0.913897,0.404561,0.033498
1773765955.449937,-0.013212,-0.155239,0.112910,-0.447790,-0.529526,-0.075128,0.913695,0.405453,0.027761
1773765955.470249,-0.000109,-0.120845,0.133340,-0.469119,-0.612447,-0.079229,0.913363,0.406597,0.021170
1773765955.490501,0.015111,-0.103211,0.127427,-0.367635,-0.776038,-0.079317,0.912944,0.407914,0.011825
1773765955.510343,0.007615,-0.127804,0.097797,-0.278454,-0.810556,0.031757,0.912811,0.408383,-0.000125
1773765955.530398,0.027509,-0.064121,0.102656,-0.218486,-0.807682,0.144437,0.913516,0.406589,-0.013194
1773765955.550624,0.019683,-0.052378,0.084060,-0.136765,-0.699059,0.355497,0.915116,0.402384,-0.025496
1773765955.571076,-0.024881,-0.042083,0.072604,-0.066213,-0.562449,0.456884,0.918192,0.394454,-0.036471
1773765955.591031,0.011423,-0.093986,0.087398,-0.023355,-0.473469,0.531175,0.921774,0.385048,-0.045512
1773765955.611177,-0.021327,-0.003408,0.068614,-0.017569,-0.402650,0.571782,0.925548,0.374868,-0.053248
1773765955.631269,0.003326,0.004329,0.087399,0.188033,-0.465289,0.564003,0.929428,0.363789,-0.061810
1773765955.651205,-0.022602,-0.085455,0.128229,0.085417,-0.579497,0.404829,0.932316,0.354254,-0.072748
1773765955.671348,-0.007535,-0.051296,0.137326,0.172568,-0.817902,0.247547,0.933469,0.348018,-0.086713
1773765955.691268,-0.032091,0.113073,-0.012179,0.300454,-0.867264,0.159176,0.932955,0.344325,-0.105054
1773765955.711639,-0.098790,-0.003918,0.049038,0.049292,-0.685552,0.092115,0.931966,0.341656,-0.121289
1773765955.731459,-0.073487,0.045079,0.051155,0.081344,-0.502801,0.078607,0.930985,0.340007,-0.132896
1773765955.751631,-0.061148,0.070785,0.024075,0.110778,-0.263641,0.124374,0.930700,0.337678,-0.140606
1773765955.771859,-0.054366,0.016587,0.055471,0.081532,-0.085918,0.059394,0.930816,0.335708,-0.144506
1773765955.792081,-0.037070,0.039697,0.030097,0.066891,0.114188,-0.025905,0.931022,0.334997,-0.144828
1773765955.812144,0.006747,0.034557,0.044265,0.165646,0.231353,-0.070366,0.931195,0.335636,-0.142212
1773765955.832080,0.064874,0.110486,0.018153,0.399879,0.314460,-0.014399,0.931571,0.335818,-0.139292
1773765955.852391,0.039892,0.122912,0.014855,0.564610,0.519580,0.052056,0.932779,0.334180,-0.135079
1773765955.872370,0.030888,0.112513,0.027959,0.640306,0.808780,0.219892,0.935512,0.329854,-0.126546
1773765955.892560,0.040097,0.125360,0.054151,0.703287,1.009201,0.288782,0.939563,0.323019,-0.113492
1773765955.912691,0.028076,0.101619,0.073519,0.833892,1.053999,0.236211,0.943527,0.316243,-0.098726
1773765955.932613,0.014835,0.098771,0.072341,0.978686,0.999792,0.129445,0.946652,0.310912,-0.084762
1773765955.952713,0.009677,0.079604,0.086313,1.123888,0.812167,-0.045559,0.948331,0.308519,-0.074060
1773765955.972873,-0.019093,0.032351,0.097712,1.127768,0.586074,-0.265478,0.948399,0.309751,-0.067774
1773765955.993119,-0.032562,0.004218,0.100053,1.023910,0.414039,-0.471031,0.946686,0.315469,-0.065309
1773765956.013193,-0.047429,-0.023737,0.089550,0.672976,0.394877,-0.604726,0.943685,0.324701,-0.063473
1773765956.033149,-0.031498,-0.039702,0.089907,0.358784,0.474912,-0.582497,0.940281,0.335311,-0.058642
1773765956.053221,-0.034725,-0.045619,0.082302,0.230746,0.545826,-0.537889,0.937039,0.345469,-0.051083
1773765956.073326,-0.007693,-0.058053,0.099945,0.338152,0.554779,-0.466087,0.934054,0.354577,-0.042633
1773765956.093686,0.005869,-0.039096,0.090712,0.386457,0.552313,-0.365258,0.931540,0.361957,-0.034941
1773765956.113586,0.000492,-0.066035,0.089168,0.399195,0.554735,-0.307388,0.929425,0.367991,-0.027431
1773765956.133936,0.015877,-0.077742,0.049299,0.424847,0.633389,-0.287843,0.927482,0.373335,-0.019941
1773765956.154668,0.011416,-0.108602,0.096618,0.287784,0.762685,-0.114404,0.926297,0.376668,-0.009719
1773765956.185628,0.039449,-0.096601,0.126070,0.155572,0.842924,-0.081228,0.925638,0.378385,0.004317
1773765956.199225,0.077363,-0.056291,0.084554,0.402107,0.727335,0.010224,0.925154,0.379213,0.016932
1773765956.214045,0.087673,-0.054211,0.057090,0.632328,0.574574,0.063594,0.925221,0.378598,0.025094
1773765956.233832,0.079894,-0.090617,0.061988,0.689650,0.404065,0.055050,0.925431,0.377803,0.029016
1773765956.253849,0.065352,-0.111826,0.051951,0.666923,0.267817,0.026313,0.925569,0.377390,0.029974
1773765956.274135,0.074710,-0.142779,0.037027,0.538044,0.178811,0.017802,0.925625,0.377291,0.029487
1773765956.294623,0.078966,-0.143908,0.017182,0.325482,0.129546,0.012900,0.925672,0.377215,0.028976
1773765956.314462,0.083047,-0.117053,-0.010579,0.130259,0.099059,0.053501,0.925864,0.376712,0.029393
1773765956.334889,0.103954,-0.096361,-0.027558,-0.019832,0.087470,0.096305,0.926411,0.375261,0.030686
1773765956.355083,0.156285,-0.078772,-0.031104,-0.134648,0.067646,0.146401,0.927287,0.372916,0.032737
1773765956.375021,0.176792,-0.066391,-0.027481,-0.254210,0.045029,0.197933,0.928570,0.369476,0.035279
1773765956.394822,0.163231,-0.042882,-0.031518,-0.317591,0.001685,0.240038,0.930214,0.365056,0.037896
1773765956.415178,0.089325,-0.038925,-0.033368,-0.373880,-0.032616,0.240304,0.932053,0.360092,0.040142
1773765956.435314,0.017996,-0.039329,-0.045880,-0.416980,-0.037053,0.198054,0.933725,0.355476,0.042370
1773765956.455459,-0.039278,-0.014810,-0.066753,-0.369434,-0.038208,0.143412,0.935045,0.351724,0.044506
1773765956.475511,-0.083870,-0.006590,-0.089012,-0.256914,-0.035976,0.114330,0.936027,0.348906,0.046012
1773765956.495492,-0.082098,0.000928,-0.098488,-0.114081,-0.049059,0.103067,0.936865,0.346576,0.046577
1773765956.515682,-0.070625,0.009929,-0.097448,0.033759,-0.086949,0.118676,0.937721,0.344380,0.045629
1773765956.535728,-0.067937,-0.004534,-0.086419,0.100890,-0.141552,0.133311,0.938725,0.341967,0.043053
1773765956.555847,-0.056072,-0.019105,-0.069682,0.052335,-0.201604,0.126930,0.939769,0.339539,0.039332
1773765956.575759,-0.040248,-0.020333,-0.049757,-0.064084,-0.262625,0.096548,0.940746,0.337304,0.034972
1773765956.595826,-0.013203,-0.033106,-0.022185,-0.230255,-0.320252,0.053542,0.941486,0.335672,0.030455
1773765956.616009,0.012214,-0.026064,0.000867,-0.344307,-0.359373,0.015637,0.941933,0.334795,0.025974
1773765956.636027,0.040569,-0.014961,0.020741,-0.364726,-0.373936,-0.030577,0.942066,0.334739,0.021465
1773765956.656158,0.054017,-0.000848,0.035682,-0.290872,-0.342947,-0.039837,0.941986,0.335229,0.016884
1773765956.676469,0.066627,0.016334,0.037934,-0.104167,-0.285040,-0.024469,0.941872,0.335747,0.012297
1773765956.696353,0.061340,0.015910,0.043739,0.117262,-0.211619,-0.005628,0.941880,0.335866,0.007561
1773765956.716868,0.040315,0.021040,0.042053,0.331967,-0.127744,0.001150,0.941939,0.335772,0.002854
1773765956.736716,0.003049,0.003993,0.036782,0.467861,-0.048016,-0.032871,0.941898,0.335897,-0.001503
1773765956.756723,-0.019885,-0.010354,0.034882,0.526804,0.004888,-0.097165,0.941501,0.336968,-0.005295
1773765956.776911,-0.027979,-0.035556,0.039785,0.505435,0.012077,-0.179048,0.940607,0.339389,-0.008596
1773765956.797045,-0.042098,-0.052905,0.049002,0.431499,-0.006301,-0.275068,0.939071,0.343524,-0.011740
1773765956.817243,-0.036908,-0.064131,0.060741,0.331404,-0.038253,-0.370268,0.936841,0.349440,-0.014857
1773765956.837287,-0.015256,-0.084451,0.071501,0.204584,-0.064574,-0.458580,0.933911,0.357065,-0.017729
1773765956.857213,0.021132,-0.098662,0.082000,0.104221,-0.072826,-0.531760,0.930314,0.366210,-0.020156
1773765956.877439,0.043743,-0.116112,0.094913,0.018383,-0.061805,-0.585597,0.926151,0.376518,-0.021869
1773765956.897674,0.071583,-0.129289,0.114137,-0.042132,-0.031955,-0.634993,0.921490,0.387742,-0.022645
1773765956.917658,0.089475,-0.142564,0.119754,-0.059694,0.026064,-0.663717,0.916354,0.399751,-0.022266
1773765956.937869,0.108157,-0.154804,0.114769,-0.036265,0.122345,-0.657075,0.910993,0.411915,-0.020470
1773765956.957815,0.121017,-0.147850,0.086621,0.121458,0.240813,-0.605531,0.905793,0.423363,-0.017437
1773765956.977964,0.088726,-0.154918,0.052899,0.279788,0.372115,-0.527450,0.901051,0.433498,-0.013684
1773765956.998077,0.041039,-0.173534,0.024455,0.412473,0.474661,-0.448000,0.896919,0.442104,-0.008983
1773765957.018109,0.005913,-0.188895,0.007947,0.520172,0.542913,-0.370641,0.893363,0.449317,-0.004056
1773765957.038289,-0.000401,-0.217030,-0.004420,0.533977,0.574148,-0.310711,0.890324,0.455327,0.001185
1773765957.059268,0.011668,-0.215070,-0.023588,0.543488,0.582531,-0.227929,0.887869,0.460050,0.006635
1773765957.078479,0.022650,-0.230197,-0.036864,0.535293,0.558042,-0.100823,0.886255,0.463046,0.011854
1773765957.098605,0.020422,-0.233074,-0.049161,0.463837,0.536690,0.024224,0.885797,0.463757,0.017133
1773765957.119115,0.051627,-0.214561,-0.080767,0.411313,0.481055,0.164631,0.886499,0.462196,0.022250
1773765957.138907,0.051500,-0.218723,-0.077062,0.258851,0.442416,0.276663,0.888350,0.458347,0.027425
1773765957.159074,0.093099,-0.185788,-0.093800,0.191149,0.388164,0.357004,0.891002,0.452786,0.033177
1773765957.178741,0.068573,-0.143571,-0.114383,0.159579,0.341463,0.419947,0.894287,0.445863,0.038165
1773765957.199067,0.074048,-0.122868,-0.115982,0.078221,0.276631,0.411413,0.897860,0.438221,0.042541
1773765957.219187,0.070708,-0.083823,-0.126935,0.001711,0.172804,0.352520,0.901002,0.431342,0.046247
1773765957.239259,0.056914,-0.046112,-0.135190,-0.088710,0.073068,0.227216,0.903413,0.425980,0.048840
1773765957.259375,0.058684,-0.010710,-0.125466,-0.168359,-0.007999,0.089754,0.904786,0.422865,0.050469
1773765957.279800,0.045848,-0.007717,-0.108215,-0.175719,-0.059471,0.007051,0.905202,0.421872,0.051330
1773765957.299780,0.034854,-0.007919,-0.102165,-0.092525,-0.092278,-0.040866,0.905118,0.422058,0.051277
1773765957.319809,0.019808,-0.023052,-0.090631,0.057739,-0.098652,-0.051560,0.904844,0.422832,0.049707
1773765957.339724,-0.003929,-0.041801,-0.072646,0.204499,-0.088413,-0.031459,0.904595,0.423683,0.046919
1773765957.359766,-0.001081,-0.073050,-0.045869,0.261971,-0.062878,-0.015437,0.904462,0.424322,0.043580
1773765957.380124,0.047602,-0.084076,-0.031091,0.304139,-0.045966,0.024854,0.904577,0.424408,0.040216
1773765957.400267,0.077122,-0.091826,-0.015138,0.348327,-0.027704,0.067709,0.904995,0.423827,0.036805
1773765957.420323,0.092519,-0.084883,-0.016834,0.383831,0.003596,0.118165,0.905833,0.422316,0.033405
1773765957.440298,0.081724,-0.080834,-0.026693,0.419260,0.023056,0.174994,0.907092,0.419838,0.030340
1773765957.460347,0.075535,-0.069541,-0.047513,0.473063,-0.001245,0.209231,0.908749,0.416480,0.026838
1773765957.480513,0.063647,-0.069804,-0.031019,0.478589,0.024670,0.218605,0.910597,0.412654,0.023039
1773765957.500552,0.069718,-0.092092,-0.001401,0.410290,0.003753,0.223655,0.912445,0.408727,0.019666
1773765957.520712,0.053539,-0.097963,0.022035,0.387776,-0.045973,0.205252,0.914295,0.404726,0.016158
1773765957.540869,0.024045,-0.100891,0.014403,0.365973,-0.135195,0.185322,0.915973,0.401077,0.011446
1773765957.560828,-0.000274,-0.080581,0.017310,0.312274,-0.215288,0.134269,0.917312,0.398132,0.005472
1773765957.581109,-0.002076,-0.071332,0.010259,0.240321,-0.314850,0.109278,0.918305,0.395871,-0.001653
1773765957.601074,0.006148,-0.106695,0.032986,0.154254,-0.363734,0.116410,0.919191,0.393697,-0.009549
1773765957.621217,-0.002892,-0.098755,0.068576,0.019148,-0.423985,0.091827,0.919976,0.391587,-0.017428
1773765957.643094,0.015537,-0.091560,0.081554,-0.061228,-0.436033,0.074347,0.920498,0.389930,-0.025265
1773765957.661282,0.038939,-0.078261,0.067911,-0.143239,-0.431406,0.066960,0.920808,0.388655,-0.032557
1773765957.681528,0.051158,-0.080560,0.072819,-0.181430,-0.385414,0.083487,0.921148,0.387277,-0.038777
1773765957.701384,0.048951,-0.068629,0.080274,-0.228321,-0.291430,0.087097,0.921600,0.385676,-0.043683
1773765957.721539,0.024534,-0.091836,0.110391,-0.314464,-0.210357,0.069372,0.922030,0.384362,-0.046121
1773765957.741851,0.013680,-0.085785,0.130755,-0.333656,-0.150458,0.058467,0.922401,0.383377,-0.046893
1773765957.761879,0.018231,-0.088054,0.127018,-0.292774,-0.101089,0.062980,0.922794,0.382442,-0.046788
1773765957.782184,-0.005810,-0.094904,0.127351,-0.243988,-0.063134,0.081201,0.923305,0.381281,-0.046175
1773765957.802360,-0.001110,-0.088961,0.115056,-0.203789,-0.075808,0.132257,0.924084,0.379442,-0.045751
1773765957.822280,-0.006778,-0.077808,0.092912,-0.169310,-0.071403,0.169707,0.925205,0.376697,-0.045778
1773765957.842448,-0.021643,-0.077609,0.064475,-0.201120,-0.027725,0.215382,0.926626,0.373233,-0.045402
1773765957.862561,-0.014355,-0.037177,0.032621,-0.204379,0.079721,0.314516,0.928631,0.368461,-0.043379
1773765957.882702,-0.019381,-0.037981,0.056931,-0.151459,0.167500,0.412462,0.931475,0.361651,-0.039536
1773765957.902805,-0.015983,-0.036292,0.072048,-0.050594,0.182139,0.458469,0.934806,0.353384,-0.035457
1773765957.922862,-0.010119,-0.009559,0.072425,-0.003899,0.174322,0.479647,0.938235,0.344520,-0.031959
1773765957.942975,0.004693,0.003776,0.053513,0.008208,0.147337,0.477514,0.941657,0.335336,-0.028855
1773765957.962965,-0.006892,0.022073,0.031162,-0.023869,0.157920,0.454991,0.944865,0.326422,-0.026066
1773765957.983152,-0.005743,0.028973,0.031387,-0.056673,0.148945,0.435554,0.947897,0.317768,-0.022704
1773765958.003131,-0.007282,0.041473,0.041555,-0.071428,0.103827,0.370074,0.950504,0.310074,-0.019888
1773765958.025152,0.005786,0.077657,0.015220,-0.063466,0.060671,0.290991,0.952573,0.303782,-0.017921
1773765958.043991,0.014343,0.082630,0.002064,-0.038459,0.039255,0.218958,0.954209,0.298672,-0.016743
1773765958.063600,0.024840,0.095255,-0.018327,-0.008674,0.027652,0.137959,0.955324,0.295126,-0.016021
1773765958.083309,0.012150,0.124699,-0.019895,-0.031071,0.066736,0.070666,0.956005,0.292965,-0.015032
1773765958.103543,0.002335,0.111978,-0.011106,-0.064231,0.104277,-0.008108,0.956222,0.292350,-0.013064
1773765958.123479,0.001960,0.108068,-0.018677,-0.043587,0.130327,-0.086292,0.956002,0.293177,-0.010406
1773765958.143702,0.003045,0.113284,-0.030008,0.075538,0.138298,-0.172726,0.955253,0.295682,-0.008001
1773765958.163871,0.004626,0.059686,-0.016459,0.050398,0.158670,-0.163776,0.954313,0.298759,-0.005560
1773765958.184287,-0.001286,0.062847,-0.013412,0.079883,0.180304,-0.186478,0.953312,0.301975,-0.002594
1773765958.205714,0.005807,0.043737,-0.005068,0.118482,0.183083,-0.197220,0.952170,0.305568,0.000292
1773765958.224281,0.005213,0.020802,0.005075,0.107345,0.171328,-0.215195,0.950918,0.309429,0.002967
1773765958.244487,0.004753,0.014957,0.014343,0.082564,0.128382,-0.240190,0.949547,0.313580,0.005295
1773765958.264510,0.008540,-0.007547,0.015652,0.013830,0.067417,-0.273341,0.947912,0.318460,0.006870
1773765958.284539,0.002300,-0.014379,0.020536,0.003880,0.013806,-0.317194,0.946049,0.323934,0.007632
1773765958.304641,0.012331,-0.014227,0.027658,0.030329,-0.031333,-0.343599,0.943891,0.330175,0.007315
1773765958.324769,0.010826,-0.029359,0.025681,0.040333,-0.047079,-0.367285,0.941536,0.336854,0.006347
1773765958.344994,0.011363,-0.031880,0.029407,0.029480,-0.032288,-0.352735,0.939061,0.343708,0.005322
1773765958.364905,0.023798,-0.049620,0.032099,0.028330,-0.021297,-0.337016,0.936697,0.350112,0.004583
1773765958.384875,0.020613,-0.049566,0.037883,0.055878,0.013171,-0.302206,0.934450,0.356070,0.004292
1773765958.405266,0.015416,-0.055950,0.037798,0.072682,0.019321,-0.280685,0.932384,0.361446,0.004194
1773765958.425342,0.001602,-0.070834,0.038121,0.057733,0.018236,-0.276630,0.930390,0.366549,0.004024
1773765958.445460,0.007040,-0.071972,0.035918,0.059033,0.007941,-0.269848,0.928400,0.371563,0.003800
1773765958.465262,0.018024,-0.078578,0.030486,0.059280,0.006199,-0.242618,0.926495,0.376292,0.003449
1773765958.485574,0.022155,-0.083846,0.027993,0.064261,0.037073,-0.210160,0.924791,0.380461,0.003379
1773765958.505596,0.020911,-0.086925,0.023283,0.090328,0.073554,-0.167660,0.923364,0.383906,0.003847
1773765958.525702,0.004418,-0.092116,0.027074,0.087279,0.071491,-0.150244,0.922187,0.386718,0.004558
1773765958.545867,-0.004584,-0.104014,0.028609,0.057247,0.048533,-0.157866,0.920996,0.389536,0.005189
1773765958.565947,0.009875,-0.104668,0.025150,0.002934,0.008804,-0.163334,0.919751,0.392464,0.005444
1773765958.586093,0.013643,-0.114391,0.035765,-0.054193,-0.000938,-0.145414,0.918532,0.395305,0.005708
1773765958.605997,0.014206,-0.101298,0.028344,-0.040024,0.002364,-0.109247,0.917542,0.397593,0.006095
1773765958.626294,0.005860,-0.109022,0.028273,-0.004861,-0.002657,-0.065158,0.916870,0.399137,0.006272
1773765958.646409,0.008688,-0.101461,0.029945,-0.001410,-0.005185,-0.018328,0.916574,0.399816,0.006234
1773765958.666460,-0.002976,-0.103155,0.026027,-0.032539,0.002578,0.022275,0.916626,0.399694,0.006352
1773765958.686638,-0.006397,-0.083556,0.021045,-0.065932,0.025338,0.060532,0.916950,0.398940,0.007015
1773765958.706515,-0.013343,-0.083244,0.018572,-0.098619,0.047531,0.096461,0.917625,0.397361,0.008344
1773765958.726813,-0.015623,-0.064209,0.020284,-0.106698,0.050312,0.094741,0.918394,0.395538,0.010126
1773765958.746925,-0.020126,-0.056373,0.019270,-0.128514,0.037615,0.072898,0.919143,0.393745,0.011889
1773765958.766906,-0.026336,-0.063950,0.016758,-0.250389,0.025633,0.050062,0.919646,0.392502,0.013912
1773765958.787135,-0.049762,-0.055119,0.013119,-0.351661,0.006427,0.029436,0.919955,0.391666,0.016728
1773765958.807175,-0.043824,-0.051970,0.008042,-0.457013,-0.053426,-0.028238,0.919984,0.391479,0.019363
1773765958.827298,-0.016133,-0.049121,0.024721,-0.607725,-0.109774,-0.079688,0.919590,0.392261,0.022032
1773765958.847397,0.015731,-0.045643,0.036172,-0.732121,-0.141546,-0.071404,0.919068,0.393299,0.025092
1773765958.867529,0.043966,-0.025029,0.034888,-0.762641,-0.122297,-0.068060,0.918589,0.394185,0.028512
1773765958.887602,0.059818,-0.023912,0.046676,-0.818901,-0.080247,-0.066379,0.918148,0.394868,0.032914
1773765958.907751,0.072634,-0.018800,0.057246,-0.833289,-0.028872,-0.078291,0.917647,0.395524,0.038549
1773765958.927791,0.071437,0.001834,0.043923,-0.758058,0.013293,-0.073659,0.917027,0.396314,0.044684
1773765958.947916,0.057003,0.006820,0.019075,-0.610426,0.087023,-0.058972,0.916492,0.396760,0.051222
1773765958.972781,0.056564,0.035176,-0.005781,-0.363563,0.146882,-0.020650,0.916093,0.396861,0.057234
1773765958.988533,0.037097,0.003392,-0.002670,-0.252692,0.168252,-0.006913,0.915830,0.396663,0.062561
1773765959.007990,0.037700,-0.007057,-0.020918,-0.224913,0.166743,-0.038845,0.915441,0.396737,0.067595
1773765959.028107,0.058204,-0.006692,-0.035546,-0.216896,0.137141,-0.065045,0.914848,0.397302,0.072137
1773765959.049016,0.068997,-0.006832,-0.058686,-0.185264,0.119170,-0.079280,0.914127,0.398220,0.076111
1773765959.068364,0.065887,-0.000447,-0.076924,-0.084939,0.119552,-0.090690,0.913284,0.399495,0.079472
1773765959.088471,0.055063,-0.004142,-0.088425,0.037053,0.118377,-0.104413,0.912344,0.401160,0.081849
1773765959.108735,0.071149,-0.010880,-0.099609,0.112386,0.101855,-0.117199,0.911319,0.403199,0.083236
1773765959.128584,0.088453,-0.036227,-0.112360,0.111685,0.070616,-0.129714,0.910204,0.405581,0.083857
1773765959.148780,0.095399,-0.055933,-0.114669,0.019239,0.018056,-0.142622,0.909026,0.408167,0.084091
1773765959.168973,0.120083,-0.033417,-0.127544,-0.043546,-0.070304,-0.151452,0.907871,0.410797,0.083766
1773765959.189081,0.113285,-0.059976,-0.142894,-0.097740,-0.127153,-0.164498,0.906750,0.413522,0.082485
1773765959.209235,0.118045,-0.057725,-0.142826,-0.154984,-0.178950,-0.169493,0.905636,0.416322,0.080616
1773765959.229071,0.113465,-0.068778,-0.127523,-0.218254,-0.238299,-0.191880,0.904525,0.419150,0.078405
1773765959.249408,0.122893,-0.098574,-0.107902,-0.339791,-0.296300,-0.267093,0.903169,0.422518,0.075919
1773765959.269466,0.108181,-0.093070,-0.107884,-0.447984,-0.342594,-0.361094,0.901036,0.427497,0.073353
1773765959.289721,0.089748,-0.097382,-0.123790,-0.488339,-0.379905,-0.442175,0.898151,0.433915,0.071010
1773765959.309749,0.060282,-0.141567,-0.116537,-0.588991,-0.385181,-0.538561,0.894415,0.441921,0.068762
1773765959.329822,0.020433,-0.261769,-0.089251,-0.756641,-0.387592,-0.561167,0.890028,0.450825,0.067873
1773765959.350053,-0.017966,-0.283215,-0.091841,-0.831177,-0.397942,-0.513880,0.885642,0.459332,0.068205
1773765959.370010,-0.036957,-0.331694,-0.153839,-0.775912,-0.371048,-0.352691,0.882141,0.465926,0.068848
1773765959.390173,-0.070752,-0.361284,-0.214343,-0.662034,-0.287664,-0.079798,0.880536,0.468828,0.069690
1773765959.410238,-0.075646,-0.378672,-0.219410,-0.576423,-0.223478,0.187051,0.881524,0.466761,0.071064
1773765959.430267,-0.065989,-0.394508,-0.178071,-0.602859,-0.204176,0.416965,0.884791,0.460273,0.072755
1773765959.450461,-0.032800,-0.367559,-0.155537,-0.643137,-0.254101,0.551743,0.889657,0.450522,0.074436
1773765959.470419,0.004657,-0.355581,-0.166714,-0.708494,-0.277736,0.606052,0.895368,0.438879,0.075512
1773765959.490582,0.036330,-0.340087,-0.158305,-0.887742,-0.317016,0.582399,0.901048,0.426833,0.076976
1773765959.510767,0.064680,-0.298428,-0.123456,-1.113238,-0.363705,0.583218,0.906511,0.414685,0.079206
1773765959.530903,0.090326,-0.262171,-0.110582,-1.264967,-0.391476,0.592987,0.912009,0.401881,0.082048
1773765959.551000,0.104047,-0.206008,-0.132536,-1.322801,-0.403848,0.564319,0.917316,0.388961,0.085097
1773765959.570903,0.111997,-0.147481,-0.134743,-1.334558,-0.399824,0.499081,0.922153,0.376729,0.087807
1773765959.591184,0.102815,-0.099105,-0.150421,-1.395174,-0.357508,0.391795,0.926177,0.365981,0.090851
1773765959.611273,0.087436,-0.054080,-0.168057,-1.413459,-0.312843,0.269361,0.929227,0.357135,0.094830
1773765959.631384,0.059139,-0.029041,-0.160243,-1.423210,-0.264836,0.130167,0.931248,0.350574,0.099376
1773765959.651581,0.073131,-0.011478,-0.172364,-1.420777,-0.138198,0.071964,0.932408,0.345661,0.105515
1773765959.671525,0.081596,0.047692,-0.222893,-1.203825,-0.023587,-0.016996,0.932884,0.341789,0.113609
1773765959.691670,0.072787,0.150188,-0.302025,-0.531921,-0.051026,-0.242260,0.932020,0.342091,0.119637
1773765959.711602,0.160990,0.240138,-0.486411,0.568879,-0.228235,-0.254123,0.930410,0.347417,0.116782
1773765959.732097,0.283124,0.112414,-0.437832,0.347304,-0.115891,0.005456,0.929858,0.351163,0.109768
1773765959.752170,0.393729,-0.037328,-0.135191,-0.295023,-0.336991,-0.072815,0.930170,0.351568,0.105757
1773765959.771956,0.462328,0.082254,-0.057541,-0.418113,-0.483684,0.064531,0.930754,0.351645,0.100219
1773765959.792160,0.474737,0.024869,-0.062867,-0.439510,-0.500170,0.320798,0.933359,0.346377,0.094148
1773765959.812418,0.282375,0.174306,-0.018332,-0.362454,-0.668834,0.379114,0.936985,0.338695,0.085699
1773765959.832518,0.106459,0.074661,0.136600,-0.499823,-0.901969,0.229348,0.940904,0.330826,0.072476
1773765959.856590,-0.077181,0.008273,0.229661,-0.833784,-0.962031,-0.036797,0.943011,0.327588,0.058456
1773765959.874556,-0.156845,0.042051,0.193990,-1.039405,-0.930521,-0.231081,0.943360,0.328554,0.046092
1773765959.892399,-0.227913,0.085371,0.118546,-1.128071,-0.818484,-0.339228,0.942528,0.332201,0.035842
1773765959.913983,-0.303207,0.086825,0.097239,-1.071084,-0.656105,-0.334546,0.940871,0.337522,0.028982
1773765959.932647,-0.378176,0.082744,0.119504,-0.945708,-0.534577,-0.293067,0.939090,0.342793,0.024570
1773765959.952952,-0.424835,0.073086,0.123478,-0.770362,-0.450463,-0.279396,0.937362,0.347706,0.021282
1773765959.972914,-0.425391,0.062745,0.109410,-0.640018,-0.393423,-0.306904,0.935477,0.352919,0.018184
1773765959.993255,-0.367809,0.042505,0.129468,-0.614896,-0.339596,-0.316435,0.933376,0.358557,0.015689
1773765960.013555,-0.283076,0.021802,0.138806,-0.671190,-0.271911,-0.330566,0.931102,0.364475,0.014438
1773765960.033550,-0.182155,0.017672,0.125286,-0.777160,-0.242074,-0.358140,0.928706,0.370512,0.015019
1773765960.053532,-0.128750,0.024826,0.111533,-0.863864,-0.198213,-0.385738,0.925976,0.377197,0.017068
1773765960.073671,-0.074586,0.023941,0.085040,-0.911077,-0.176946,-0.406942,0.923050,0.384140,0.020352
1773765960.093973,-0.048553,-0.007722,0.072302,-0.965982,-0.140935,-0.442143,0.919830,0.391541,0.024667
1773765960.113863,-0.023566,0.018573,0.066470,-1.002137,-0.086767,-0.453424,0.916297,0.399350,0.030317
1773765960.134044,0.024877,0.025538,0.010176,-1.042374,-0.024473,-0.412506,0.912821,0.406621,0.037645
1773765960.154049,0.037373,0.056156,-0.047401,-0.923794,0.057044,-0.342268,0.909679,0.412747,0.046088
1773765960.174006,0.034428,0.064146,-0.095019,-0.778151,0.148218,-0.259828,0.907024,0.417467,0.055026
1773765960.194358,0.027265,0.076468,-0.161074,-0.562853,0.197046,-0.163686,0.905032,0.420526,0.063845
1773765960.214337,0.029618,0.064734,-0.195763,-0.378958,0.222315,-0.063003,0.903762,0.422007,0.071587
1773765960.234516,0.043013,0.052073,-0.233646,-0.215336,0.204961,0.013713,0.903230,0.422032,0.077869
1773765960.254670,0.125606,0.030828,-0.235005,-0.171441,0.160859,0.089349,0.903370,0.420802,0.082753
1773765960.274612,0.226271,-0.001077,-0.193588,-0.226404,0.052923,0.163381,0.904268,0.418145,0.086334
1773765960.294735,0.278482,-0.024556,-0.160902,-0.398709,-0.083530,0.198562,0.905814,0.414327,0.088514
1773765960.314828,0.251459,-0.050988,-0.144137,-0.626678,-0.202189,0.212244,0.907781,0.409661,0.090060
1773765960.334920,0.204111,-0.088819,-0.093689,-0.859896,-0.264870,0.224830,0.910025,0.404279,0.091720
1773765960.355034,0.222914,-0.112741,-0.045651,-1.087982,-0.327815,0.231372,0.912416,0.398279,0.094189
1773765960.374887,0.234744,-0.111408,-0.069971,-1.273938,-0.364428,0.319669,0.915173,0.391178,0.097147
1773765960.395284,0.240610,-0.143762,-0.070713,-1.347054,-0.363923,0.504909,0.919103,0.380944,0.100650
1773765960.415447,0.161547,-0.111374,-0.080369,-1.254551,-0.340183,0.730940,0.924482,0.366837,0.103746
1773765960.435444,0.090490,-0.057561,-0.143610,-0.924774,-0.291369,1.011089,0.931452,0.348134,0.105829
1773765960.455490,0.091266,-0.049359,-0.145598,-0.628188,-0.289944,1.176597,0.939572,0.325696,0.105483
1773765960.475548,0.138947,-0.087319,-0.074208,-0.619480,-0.349740,1.181517,0.947769,0.301827,0.103123
1773765960.495742,0.231233,-0.124710,0.002985,-0.870180,-0.464150,1.086475,0.955290,0.278427,0.099493
1773765960.516064,0.251543,-0.163459,0.078269,-1.319866,-0.593769,0.898815,0.961760,0.256995,0.094720
1773765960.535980,0.136774,-0.150418,0.077908,-1.643502,-0.675441,0.702835,0.967077,0.238461,0.088870
1773765960.556143,-0.049010,-0.080729,0.000535,-1.677754,-0.588486,0.578068,0.971282,0.222910,0.083206
1773765960.576053,-0.235973,-0.085225,-0.082438,-1.509335,-0.450246,0.497080,0.974575,0.209584,0.079233
1773765960.596130,-0.389876,-0.123932,-0.092664,-1.438588,-0.383929,0.403277,0.977110,0.198288,0.077054
1773765960.616380,-0.478530,-0.213936,-0.138803,-1.498758,-0.462887,0.310317,0.979216,0.188621,0.074549
1773765960.636401,-0.479905,-0.299533,-0.131827,-2.367400,-0.846848,-0.164419,0.980439,0.184467,0.068640
1773765960.656534,-0.467826,-0.197949,-0.163290,-3.026583,-1.034825,-0.289944,0.980613,0.186611,0.059790
1773765960.676404,-0.458945,-0.106050,-0.190751,-2.614192,-0.839465,0.075401,0.981223,0.185823,0.051682
1773765960.696745,-0.364243,-0.095088,-0.188514,-1.783356,-0.559137,0.548936,0.982987,0.177776,0.046180
1773765960.716675,-0.195053,-0.078791,-0.171712,-0.938687,-0.269250,0.910354,0.985946,0.161631,0.042256
1773765960.737169,0.080418,-0.001104,-0.160995,-0.393829,0.049203,0.997686,0.989009,0.141729,0.042114
1773765960.760499,0.340215,0.070753,-0.169799,-0.011135,0.304782,0.915239,0.991420,0.122286,0.046187
1773765960.779305,0.350771,0.103028,-0.160966,-0.023355,0.393136,0.611053,0.992857,0.106887,0.053010
1773765960.796952,0.324514,0.150438,-0.188364,-0.231671,0.438930,0.263501,0.993266,0.098082,0.061670
1773765960.817125,0.311230,0.219334,-0.268752,-0.445578,0.379976,-0.018336,0.992939,0.095409,0.070495
1773765960.837420,0.227627,0.292326,-0.367652,-0.575233,0.247998,-0.091654,0.992329,0.096010,0.077888
1773765960.857532,0.057878,0.322406,-0.334010,-0.633867,0.051596,-0.064631,0.991927,0.096646,0.082103
1773765960.877486,-0.145696,0.348281,-0.258976,-0.586491,-0.095252,-0.019918,0.991887,0.096619,0.082615
1773765960.897654,-0.289724,0.400514,-0.231377,-0.389407,-0.185525,-0.002430,0.992117,0.095900,0.080666
1773765960.917986,-0.405844,0.396703,-0.218710,-0.368415,-0.216418,-0.057557,0.992392,0.095881,0.077230
1773765960.938027,-0.447188,0.388140,-0.150254,-0.531943,-0.281198,-0.119017,0.992583,0.097120,0.073121
1773765960.958150,-0.371717,0.346335,-0.036559,-0.830092,-0.397785,-0.078151,0.992857,0.098245,0.067702
1773765960.978480,-0.262470,0.370975,0.101465,-1.096348,-0.489907,0.036441,0.993382,0.097546,0.060644
1773765960.998347,0.033235,0.426224,0.204915,-1.091563,-0.584858,0.218999,0.994231,0.093780,0.052058
1773765961.018426,0.458095,0.520550,0.291371,-0.946053,-0.827176,0.276139,0.995351,0.087589,0.040065
1773765961.038473,0.668350,0.533990,0.451089,-0.891970,-1.019586,0.210916,0.996384,0.081824,0.022895
1773765961.058722,0.616974,0.496921,0.598839,-1.060361,-1.089784,-0.088922,0.996795,0.079937,0.002983
1773765961.078868,0.484900,0.420225,0.625616,-1.269434,-0.945079,-0.535775,0.996149,0.086199,-0.016058
1773765961.098881,0.251138,0.315256,0.511055,-1.439666,-0.397965,-1.047336,0.994315,0.102866,-0.027504
1773765961.118799,0.046293,0.270903,0.337615,-1.322406,0.317452,-1.488416,0.991274,0.129365,-0.025298
1773765961.139170,-0.023438,0.250938,0.156350,-0.711431,0.883430,-1.777915,0.986649,0.162560,-0.009941
1773765961.159334,-0.103653,0.201721,0.052343,0.182704,1.207973,-1.907676,0.979859,0.199341,0.011820
1773765961.179326,-0.141942,0.063277,-0.048022,1.023261,1.382288,-1.963346,0.970708,0.237764,0.034564
1773765961.199443,-0.098771,-0.059631,-0.112284,1.540103,1.348428,-2.023136,0.959138,0.277649,0.054453
1773765961.219604,-0.070186,-0.153142,-0.116382,1.617845,1.147999,-2.033559,0.945308,0.318822,0.068881
1773765961.239636,-0.031678,-0.310749,-0.164090,1.715083,0.752352,-1.889798,0.930665,0.358036,0.075315
1773765961.259565,-0.133134,-0.465605,-0.154077,1.582219,0.745961,-2.049018,0.915102,0.396055,0.075693
1773765961.279776,-0.020813,-0.535529,-0.101707,0.816861,0.346398,-1.881896,0.898118,0.433341,0.074837
1773765961.299966,-0.202992,-0.518167,-0.145382,0.285704,0.287823,-1.897654,0.880421,0.468088,0.075848
1773765961.319925,-0.188062,-0.595210,-0.179227,-0.125320,0.192486,-1.791553,0.861982,0.500682,0.079405
1773765961.340131,-0.268991,-0.656074,-0.232514,-0.229491,0.111958,-1.500194,0.844812,0.528480,0.083680
1773765961.360122,-0.300255,-0.735879,-0.235591,-0.428163,-0.113096,-1.207348,0.829811,0.551141,0.087505
1773765961.380115,-0.313628,-0.761174,-0.237933,-0.620911,-0.262678,-0.780165,0.818984,0.566701,0.090090
1773765961.400327,-0.320202,-0.819676,-0.232599,-0.864030,-0.444875,-0.343739,0.812985,0.574833,0.092859
1773765961.420361,-0.226735,-0.680199,-0.208682,-0.960976,-0.694222,0.070663,0.812535,0.575249,0.094211
1773765961.440701,-0.121950,-0.581191,-0.171008,-0.956339,-1.088992,0.606727,0.818163,0.567809,0.090563
1773765961.460733,0.015914,-0.509505,-0.051316,-1.250123,-1.352522,0.972515,0.829209,0.552871,0.082138
1773765961.480586,0.554331,-0.566323,0.262321,-2.148082,-1.653051,1.318016,0.844122,0.530801,0.075555
1773765961.500733,1.595279,-0.626364,0.750199,-3.101998,-2.486091,1.773402,0.862897,0.500830,0.067672
1773765961.520948,1.955589,-0.264162,0.948698,-3.536323,-2.877802,2.502490,0.886406,0.459963,0.052141
1773765961.541084,1.639111,0.328648,0.710374,-3.089305,-2.313848,3.692498,0.915515,0.400997,0.032149
1773765961.561185,0.916117,0.793289,-0.152104,-1.371786,-0.479726,4.308105,0.946142,0.322861,0.024022
1773765961.581206,0.509397,0.805612,-0.500361,0.619781,0.778999,4.092390,0.969943,0.241599,0.029002
1773765961.601342,0.154881,0.425005,-0.477175,2.031359,1.702685,3.649117,0.984951,0.165907,0.048449
1773765961.621439,-0.086144,0.275569,-0.317575,2.579698,1.852274,2.858713,0.991524,0.103978,0.077906
1773765961.641487,-0.204770,0.213773,-0.217694,2.159921,1.754833,2.137134,0.992139,0.058963,0.110379
1773765961.661630,-0.218708,0.004467,-0.146534,1.012181,1.211694,1.553356,0.990025,0.026936,0.138295
1773765961.682083,-0.239195,0.042448,-0.090414,-0.177782,0.516258,1.205791,0.987868,0.000872,0.155295
1773765961.702029,-0.242795,0.123600,-0.117978,-0.998915,-0.163388,1.050728,0.987119,-0.023350,0.158277
1773765961.721656,-0.284793,0.237978,-0.190951,-1.341191,-0.596789,0.920845,0.987690,-0.046556,0.149340
1773765961.742020,-0.262982,0.359687,-0.242878,-1.426292,-0.906018,0.703810,0.988858,-0.067054,0.132908
1773765961.762023,-0.325796,0.498737,-0.249700,-1.390538,-1.172953,0.425952,0.990591,-0.081638,0.109838
1773765961.781919,-0.442289,0.579055,-0.230925,-1.004950,-1.258554,0.313673,0.992383,-0.091064,0.082961
1773765961.802343,-0.554393,0.681266,-0.242710,-0.403878,-1.149222,0.359375,0.993449,-0.098701,0.057590
1773765961.822479,-0.615803,0.787035,-0.218335,0.150128,-1.010207,0.462860,0.993626,-0.106920,0.035718
1773765961.842652,-0.659844,0.845590,-0.143323,0.471128,-0.928825,0.576321,0.992958,-0.117196,0.017286
1773765961.862706,-0.647445,0.864400,0.036902,0.373635,-0.926429,0.670908,0.991561,-0.129643,0.000055
1773765961.882797,-0.607932,0.964608,0.187311,0.175015,-0.959476,0.700070,0.989493,-0.143456,-0.017999
1773765961.902898,-0.501592,1.104438,0.308803,0.322937,-0.952064,0.679493,0.986883,-0.157219,-0.036678
1773765961.923018,-0.160114,1.231346,0.327433,0.905034,-0.797419,0.688634,0.983814,-0.171532,-0.051844
1773765961.943138,0.770668,1.373197,0.399635,1.497446,-0.891172,0.397682,0.980781,-0.184430,-0.063667
1773765961.963110,1.621559,1.273215,0.797665,1.707831,-1.516425,-0.260261,0.978722,-0.188682,-0.080639
1773765961.983108,1.304987,0.897187,0.996675,1.011870,-2.139978,-1.389537,0.978018,-0.175400,-0.112764
1773765962.003367,0.846497,0.440524,0.982416,0.108803,-1.842326,-2.568359,0.978927,-0.137652,-0.150842
1773765962.023485,0.637665,0.059703,0.747229,-0.062778,-0.867442,-3.510803,0.980896,-0.076656,-0.178793
1773765962.043464,0.691101,0.154345,0.347471,0.512393,0.204504,-3.703868,0.982925,-0.005404,-0.183927
1773765962.063553,0.920569,0.247311,0.278945,1.349243,0.815996,-3.756014,0.982507,0.065127,-0.174468
1773765962.083707,0.951049,-0.076501,0.471966,1.590508,1.122600,-3.784866,0.978257,0.134469,-0.157895
1773765962.103879,0.777112,-0.236016,0.580230,1.553755,1.108028,-3.835762,0.968646,0.204385,-0.141250
1773765962.123830,0.577372,-0.250269,0.539359,1.448081,1.026051,-3.925546,0.952566,0.275888,-0.128470
1773765962.143955,0.508304,-0.355020,0.446564,1.300695,0.990520,-4.043029,0.930035,0.348016,-0.117981
1773765962.164196,0.513228,-0.472562,0.391476,1.149346,0.969776,-4.192950,0.900346,0.421170,-0.109509
1773765962.184125,0.509843,-0.645921,0.351258,1.061029,0.998425,-4.262691,0.863418,0.494035,-0.102174
1773765962.204349,0.456632,-0.761943,0.326025,0.878679,1.025322,-4.193367,0.820208,0.564067,-0.095327
1773765962.224470,0.433602,-0.806508,0.271941,0.710480,0.951799,-3.949003,0.773079,0.628057,-0.088851
1773765962.244569,0.346584,-0.819256,0.236310,0.509210,0.884665,-3.592327,0.724705,0.684032,-0.083082
1773765962.264682,0.272548,-0.862109,0.155924,0.494383,0.844500,-3.125766,0.678181,0.730762,-0.077830
1773765962.284634,0.146357,-0.988725,0.060142,0.630967,0.753867,-2.656306,0.635748,0.768144,-0.076027
1773765962.305047,0.026153,-1.133024,0.031305,0.581843,0.664791,-2.233257,0.598282,0.797575,-0.077020
1773765962.325112,-0.048142,-1.218180,0.023091,0.440838,0.557753,-1.799583,0.566499,0.820337,-0.078267
1773765962.345210,-0.036341,-1.165883,0.026948,0.306035,0.383630,-1.343557,0.541010,0.837285,-0.079133
1773765962.365165,0.025392,-1.091693,0.020452,0.216209,0.149899,-0.861205,0.522719,0.848682,-0.080648
1773765962.385383,0.063903,-1.082443,0.036417,-0.020580,-0.032918,-0.371433,0.512086,0.854981,-0.082315
1773765962.405424,0.365718,-1.133861,0.109989,-0.522067,-0.045017,0.306322,0.511159,0.855876,-0.078693
1773765962.425462,0.885292,-1.155356,0.404697,-1.393610,-0.752477,1.239934,0.523597,0.849371,-0.066440
1773765962.445705,0.937890,-1.145716,0.591184,-2.354489,-1.439418,2.419935,0.551856,0.832652,-0.046323
1773765962.465810,1.119152,-0.804110,0.711755,-3.015254,-1.736678,4.075311,0.604084,0.796648,-0.020852
1773765962.485724,1.288532,-0.073113,0.647387,-3.764962,-1.700505,5.561594,0.678036,0.734978,0.008619
1773765962.506012,1.215215,0.360559,0.216042,-3.663780,-0.767864,6.843689,0.765894,0.641516,0.043159
1773765962.525807,1.185132,0.389692,-0.146333,-2.444733,-0.040569,7.170632,0.849032,0.523150,0.073885
1773765962.546107,1.128469,0.627507,-0.537459,0.118855,0.641477,7.058340,0.914530,0.393946,0.091872
1773765962.566068,0.782064,0.897777,-0.454320,2.051073,0.954868,6.323643,0.957774,0.269642,0.099812
1773765962.588902,0.418693,0.956852,-0.278927,2.899096,0.928656,5.171771,0.980736,0.162441,0.108486
1773765962.606496,0.093455,0.832835,0.039395,2.305141,0.499385,3.956174,0.990163,0.078145,0.116062
1773765962.626219,-0.121527,0.532730,0.188693,1.018638,0.147931,2.902502,0.992575,0.013550,0.120878
1773765962.646542,-0.154049,0.526983,0.016671,-0.035353,0.039816,1.944441,0.991940,-0.033499,0.122200
1773765962.666719,-0.080143,0.483520,-0.123495,-1.017760,-0.077564,1.165943,0.990329,-0.067230,0.121359
1773765962.686665,-0.071854,0.641176,-0.187689,-1.391904,-0.292689,0.458059,0.989594,-0.085833,0.115485
1773765962.706950,-0.146572,0.623614,-0.196084,-1.722145,-0.393790,0.113089,0.989925,-0.094256,0.105660
1773765962.726903,-0.258235,0.746090,-0.238323,-1.688861,-0.455367,-0.029315,0.990703,-0.098462,0.093883
1773765962.747155,-0.370824,0.771077,-0.271447,-1.424410,-0.474921,-0.087512,0.991659,-0.099888,0.081460
1773765962.767069,-0.438187,0.836962,-0.290389,-0.818008,-0.443320,0.006584,0.992432,-0.100848,0.070067
1773765962.787146,-0.505539,0.851701,-0.288887,-0.149967,-0.437273,0.083640,0.992920,-0.102281,0.060402
1773765962.807541,-0.510740,0.837066,-0.198315,0.374468,-0.486431,0.173940,0.993162,-0.104751,0.051541
1773765962.827600,-0.445592,0.798285,-0.101040,0.617620,-0.565893,0.224951,0.993230,-0.108237,0.042187
1773765962.847680,-0.295117,0.745839,0.022993,0.724047,-0.639576,0.288888,0.993115,-0.112767,0.031725
1773765962.867807,-0.070161,0.747836,0.097147,1.035032,-0.759032,0.453787,0.992646,-0.119433,0.019736
1773765962.887889,0.274024,0.870216,0.009590,1.698522,-0.831645,0.746478,0.991341,-0.131110,0.007271
1773765962.908045,0.958093,1.096505,0.040894,2.428886,-1.034238,0.691537,0.989250,-0.146157,-0.004883
1773765962.928017,1.566532,1.193061,0.383896,2.724367,-1.822183,0.309247,0.987256,-0.157294,-0.024185
1773765962.948672,1.340623,0.924021,0.978265,1.788829,-2.958385,-0.646527,0.985625,-0.156413,-0.063867
1773765962.968193,0.988486,0.578354,1.112204,0.968595,-3.371055,-1.834292,0.982903,-0.135071,-0.125128
